rotationRate.x,rotationRate.y,rotationRate.z,userAcceleration.x,userAcceleration.y,userAcceleration.z,gravity.x,gravity.y,gravity.z,class
-0.302867,-0.3089931,0.8843409,1.619,0.4517,0.085099995,1.3327,-9.6993,0.562,std
-0.058538344,-0.15442674,0.9483072,1.8986,-0.2934,0.1558,0.94519997,-9.7387,0.6581,std
0.043877576,-0.08759808,0.853274,-1.6826999,-1.5711,-1.9166,0.6726,-9.7555,0.7398,std
0.084107414,0.07340855,0.6564358,2.4879,-2.3444,1.2823,0.454,-9.7668,0.7574,std
0.1651605,0.082920596,0.42940336,1.8907,0.1618,0.0659,0.1784,-9.7821,0.6695,std
0.21649064,0.19846138,0.18483037,0.3543,0.3606,-1.1899999,-0.0209,-9.7946,0.484,std
0.31031954,0.35718164,0.07740535,0.2701,0.5014,0.624,-0.1818,-9.7980995,0.3664,std
0.32534683,0.45554838,0.06827728,0.76119995,-1.3642,0.24399999,-0.3297,-9.7957,0.3247,std
0.22282618,0.4757942,0.11721631,1.6214,-2.0188,0.2731,-0.50339997,-9.7883,0.325,std
-0.037140608,-0.029810224,0.63971555,1.0783,-0.61649996,0.3412,-0.6566,-9.7785,0.3452,std
-0.019617502,0.23106414,0.7220078,0.713,0.32529998,0.119799994,-0.7719,-9.7691,0.3705,std
0.15461873,0.11821115,0.62770766,0.64489996,-0.0457,0.4581,-0.8508,-9.760799,0.41459998,std
0.008953539,-0.0169646,0.6074095,0.7134,-0.2652,0.5106,-0.8703,-9.7571,0.4601,std
-0.030351276,-0.016301375,0.4585329,0.5796,-1.3278999,0.2694,-0.8738,-9.7535,0.5248,std
-0.13737486,-0.10770427,0.24537584,0.75839996,-1.3319,0.3897,-0.8761,-9.749499,0.5909,std
-0.2423215,-0.30199432,0.05942846,0.124699995,-6.9255,-1.4648,-0.8896,-9.7457,0.63119996,std
-0.2311165,-0.39046505,-0.06717772,2.1917,0.5172,1.4168999,-0.9953,-9.7354,0.6326,std
-0.1876927,-0.40662682,-0.15062192,-0.4565,-0.2417,-0.6105,-1.1223,-9.7218,0.6301,std
-0.21266837,-0.13788101,0.2766347,0.6606,-0.7668,0.2974,-1.2293999,-9.7066,0.66359997,std
-0.15184364,-0.071314156,0.118176244,0.91859996,-0.516,0.2303,-1.3305,-9.692699,0.67179996,std
-0.1067967,-0.15622441,0.13953908,0.8228,-1.1353999,-0.0044,-1.4111999,-9.6813,0.6712,std
-0.09896017,-0.05900958,0.11911872,0.7593,-1.0888,0.051099997,-1.4359,-9.6788,0.65489995,std
-0.102450825,-0.0037175512,0.10454522,0.7894,-0.5067,0.1436,-1.4268,-9.6823,0.62119997,std
-0.1287704,-0.011588986,0.091001466,0.5672,-0.4111,0.147,-1.3909,-9.6896,0.5884,std
-0.103009336,0.00083775807,0.1349314,1.5489,0.057499997,0.479,-1.3428999,-9.6975,0.57019997,std
-0.059725165,0.027122416,0.14215706,-0.53249997,0.6525,-0.16409999,-1.3795999,-9.6942,0.53679997,std
-0.0686438,-0.015987216,0.13772394,-0.1322,-0.0632,0.1634,-1.3877,-9.6943,0.5132,std
-0.0736878,-0.04045673,0.1301492,0.114999995,-0.4075,0.1857,-1.3995999,-9.693299,0.5007,std
-0.075764745,-0.041224677,0.12470377,-0.0026999998,-0.1924,-0.0552,-1.4094,-9.692599,0.4867,std
-0.07944739,-0.043615777,0.11568042,-0.1217,-0.3105,-0.067999996,-1.4179,-9.6922,0.47,std
-0.08611455,-0.031939525,0.12028809,0.1593,-0.2908,0.2868,-1.4243,-9.6922,0.4486,std
-0.09546951,-0.03234095,0.12672836,0.39029998,-0.2629,-0.01,-1.4396,-9.6907,0.43159997,std
-0.103026785,-0.029338984,0.14350097,0.33859998,-0.1277,0.0092,-1.4566,-9.6886,0.42209998,std
-0.10737266,-0.033405602,0.15943582,0.39299998,-0.159,0.0486,-1.4717,-9.6868,0.4122,std
-0.10321877,-0.0310145,0.1661728,0.25849998,-0.22919999,0.039,-1.4843999,-9.6853,0.40219998,std
-0.09276425,-0.01436406,0.16184439,0.1235,-0.2012,0.0201,-1.4964,-9.6838,0.3917,std
-0.0789587,0.013264502,0.15758578,0.15429999,-0.21229999,0.0021,-1.5076,-9.6826,0.3802,std
-0.07541568,0.011798426,0.15591027,-0.0188,-0.1451,-0.043199997,-1.5207,-9.681,0.36679998,std
-0.06710791,-0.012287118,0.15303047,-0.12109999,-0.088199995,0.011399999,-1.5360999,-9.6792,0.3514,std
-0.05496042,0.004468043,0.13894565,-0.0721,-0.1593,0.0383,-1.5557,-9.6765995,0.33429998,std
-0.040282197,0.03530801,0.13185963,-0.019399999,-0.1821,0.0758,-1.579,-9.6735,0.3164,std
-0.047106437,0.06934193,0.13370967,-0.020299999,-0.1274,0.11449999,-1.6075,-9.6694,0.29729998,std
-0.0437205,0.08850565,0.123447135,-0.0473,-0.062,0.1969,-1.6295999,-9.6661,0.2835,std
-0.013857914,0.08700466,0.11601204,-0.12019999,-0.1345,0.13229999,-1.6546999,-9.6622,0.2696,std
-0.0013613568,0.041573744,0.13587388,-0.114599995,-0.217,-0.0112,-1.6798999,-9.658199,0.2564,std
0.023945916,-0.0062308256,0.13638003,-0.1094,-0.2112,-0.0199,-1.7048,-9.6542,0.2455,std
0.06724753,-0.01998402,0.09684832,-0.1361,-0.1463,0.0185,-1.7271,-9.6504,0.23629999,std
0.012269665,-0.1693842,0.09812241,-0.0363,-0.199,-0.1209,-1.7484,-9.6468,0.2287,std
-0.018936822,-0.22139502,0.09295624,-0.1121,-0.0459,-0.1007,-1.7707,-9.6428995,0.2183,std
-0.11988667,-0.18491763,0.15941837,-0.2871,-0.1477,-0.27609998,-1.7917999,-9.639299,0.2075,std
-0.16962855,-0.12948598,0.2335076,-0.0416,-0.0924,-0.1041,-1.8117,-9.6357,0.2022,std
-0.123604216,0.11655309,0.22350687,-0.1256,-0.0773,-0.3867,-1.8356999,-9.6312,0.2004,std
-0.100304075,0.29928905,0.17345083,0.0061999997,-0.0624,-0.205,-1.8597,-9.6265,0.205,std
-0.11723377,0.26715755,0.113882735,0.1696,-0.18349999,-0.17909999,-1.8759999,-9.623,0.2183,std
-0.12531464,0.21699679,0.077597335,-0.2847,-0.18689999,-0.0109,-1.8923,-9.619599,0.22659999,std
-0.15093607,0.17158332,0.085905105,-1.0529,0.0156,0.20019999,-1.9086,-9.6163,0.2312,std
-0.1470789,0.1558928,0.10782644,-1.1106,0.32369998,0.078899994,-1.9390999,-9.610499,0.21519999,std
-0.116448365,0.15816173,0.12835151,-0.16319999,0.1973,0.361,-1.9842999,-9.6019,0.1881,std
-0.07407177,0.1542522,0.11918853,0.23359999,0.0023,0.1732,-2.0282,-9.5932,0.1601,std
-0.06569419,0.040212385,0.11807153,0.4933,-0.2005,-0.4229,-2.0623,-9.5864,0.1287,std
-0.04703662,0.007976155,0.096603975,0.22119999,-0.3618,-0.58489996,-2.0844998,-9.582,0.0945,std
-0.040317107,-0.043703046,0.07909832,0.0007,-0.2863,-0.6976,-2.0993,-9.5791,0.0602,std
-0.0545939,-0.08389798,0.070581116,-0.1299,-0.074,-0.3854,-2.1157,-9.5756,0.022499999,std
-0.04660029,-0.09845402,0.051330134,-0.070099995,0.0488,-0.4468,-2.1362998,-9.5711,-0.0139999995,std
-0.032201324,-0.07417649,0.030962141,0.0914,0.0727,-0.35689998,-2.1606,-9.565499,-0.0451,std
0.0013264503,-0.04998623,0.051679198,0.0546,-0.0009999999,-0.4678,-2.1827,-9.5603,-0.071499996,std
0.028867746,-0.033143803,0.10930997,0.1647,0.1408,-0.3602,-2.2045,-9.5552,-0.090799995,std
0.07021459,0.047001716,0.15247196,-0.0721,0.107,-0.5421,-2.2226,-9.550799,-0.1051,std
0.07501425,0.05639159,0.12866567,-0.2528,0.015,-0.54109997,-2.2379,-9.5471,-0.1158,std
0.097668625,0.12210324,0.06106907,-0.28759998,0.060599998,-0.2847,-2.2523,-9.5436,-0.12709999,std
0.10093239,0.12822933,0.025795966,-0.482,0.096999995,-0.13859999,-2.2637,-9.5408,-0.13589999,std
0.07995354,0.085730575,0.020053834,-1.0904,0.0652,0.024899999,-2.2731,-9.5384,-0.1426,std
0.06592108,0.06883579,0.0004712389,-1.4478999,0.1204,-0.0332,-2.2883,-9.5348,-0.1432,std
0.056985,0.03726278,-0.010594148,-1.0483999,-0.0036,-0.2236,-2.3151,-9.528399,-0.1391,std
0.0564614,0.008098328,-0.008796459,-0.23959999,-0.1099,-0.0361,-2.3493,-9.5201,-0.1305,std
0.050754175,-0.025377087,-0.0017802358,0.0738,-0.1072,-0.2313,-2.3783,-9.513,-0.121599995,std
0.056112334,-0.048380528,-0.0073827426,-0.2038,-0.1308,-0.5266,-2.3948998,-9.509,-0.1107,std
0.04930555,-0.043458696,-0.02321288,-0.058799997,-0.113,-0.3585,-2.4025,-9.507199,-0.102299996,std
0.029129544,-0.011588986,-0.043615777,0.2218,-0.11449999,-0.2977,-2.4087,-9.5057,-0.094399996,std
0.0010995574,0.013439035,-0.0749968,0.155,-0.1345,-0.1863,-2.4105,-9.5053,-0.088199995,std
-0.06471681,0.012182398,-0.10915289,0.0954,-0.0755,-0.1435,-2.4098,-9.5055,-0.081999995,std
-0.15329227,0.0004886922,-0.12388347,0.1927,-0.0163,-0.1512,-2.409,-9.505799,-0.0742,std
-0.21746802,0.018884463,-0.112835534,0.32009998,-0.0751,-0.0128,-2.4089,-9.505899,-0.0656,std
-0.2433338,0.050073497,-0.07972664,0.2499,-0.2217,0.015199999,-2.4074,-9.5064,-0.054399997,std
-0.22513002,0.020839231,-0.046635196,0.23519999,-0.1812,0.044499997,-2.4024,-9.5077,-0.044499997,std
-0.15805702,-0.040421825,-0.02136283,0.2554,-0.18869999,-0.1463,-2.3932,-9.51,-0.039899997,std
-0.06932448,-0.101386175,-0.0010646508,0.1028,-0.21429999,-0.4578,-2.378,-9.5138,-0.0423,std
0.02432989,-0.09889036,0.012287118,-0.104899995,-0.1796,-0.4132,-2.3564,-9.5191,-0.0574,std
0.06815511,-0.060370937,0.009250245,-0.2172,-0.1249,-0.127,-2.3323998,-9.524799,-0.0887,std
0.054297194,-0.05396558,-0.004049164,-0.34649998,-0.0123,0.0346,-2.3109999,-9.5295,-0.1327,std
0.030089477,-0.05263913,-0.020490166,-0.3628,0.039699998,0.0994,-2.2947,-9.532499,-0.1876,std
0.01743584,-0.03544764,-0.027017696,-0.3308,-0.057499997,0.18879999,-2.2875,-9.533299,-0.228,std
0.009285152,0.00033161257,-0.023369959,-0.2355,-0.106599994,0.25669998,-2.2847,-9.533299,-0.25669998,std
0.010035643,0.03424336,-0.014067354,-0.0969,-0.1463,0.324,-2.286,-9.5327,-0.2652,std
0.014433873,0.040282197,-0.0011519173,-0.0638,-0.1273,0.118499994,-2.2897,-9.5321,-0.25579998,std
0.02539454,0.01829105,0.010978121,-0.100099996,-0.1374,-0.093399994,-2.2926,-9.531799,-0.2399,std
0.043895032,-0.007592182,0.021868976,-0.1489,-0.23529999,-0.1257,-2.2928998,-9.5321,-0.2272,std
0.06717772,-0.022340214,0.021851523,-0.2007,-0.24419999,-0.0749,-2.2900999,-9.5329,-0.2192,std
0.07843509,-0.025429446,0.0150621915,-0.1656,-0.18429999,0.0084,-2.286,-9.533999,-0.2144,std
0.07621853,-0.014189526,0.011065387,-0.0712,-0.1245,0.0557,-2.2823,-9.5349,-0.2126,std
0.07192502,0.0055326936,0.008203047,-0.0536,-0.0652,0.1043,-2.2802,-9.535399,-0.2122,std
0.055134952,0.018587757,0.007976155,-0.0337,-0.0064,0.1521,-2.2805,-9.535399,-0.211,std
0.030089477,0.014067354,0.0054628807,-0.0016999999,-0.0363,0.1477,-2.2831,-9.5349,-0.2065,std
0.0095294975,-0.001134464,0.0047472958,0.0224,-0.0765,0.0993,-2.2877998,-9.533999,-0.1973,std
0.0065798913,-0.022933627,0.0068416907,0.026999999,-0.1361,0.0849,-2.2923,-9.5331,-0.183,std
0.013177236,-0.058276545,0.004886922,-0.0383,-0.15619999,0.0389,-2.2956,-9.5327,-0.1664,std
0.019757127,-0.10643018,-0.0004712389,-0.1339,-0.18599999,0.0037,-2.2981,-9.5323,-0.15079999,std
0.026511552,-0.14561282,-0.0011170107,-0.073199995,-0.24499999,-0.0786,-2.2999,-9.5321,-0.137,std
0.035116024,-0.16667895,0.0020071287,-0.0127,-0.2747,-0.068799995,-2.3016,-9.531799,-0.12719999,std
0.04096288,-0.17193238,0.007504916,0.1157,-0.20629999,-0.054399997,-2.3026,-9.5317,-0.121999994,std
0.032375857,-0.16423549,0.0062308256,0.2732,-0.1769,-0.026899999,-2.3030999,-9.5315,-0.1201,std
0.015428711,-0.14014994,-0.006457718,0.3426,-0.1281,0.0,-2.3039,-9.5314,-0.1175,std
-0.0010646508,-0.10107201,-0.01823869,0.33269998,-0.0888,-0.0145,-2.3039,-9.5315,-0.112799995,std
-0.006143559,-0.04448844,-0.020682152,0.2729,-0.068799995,-0.042799998,-2.3028998,-9.531799,-0.1042,std
0.0020594886,-0.004049164,-0.014538593,0.203,-0.097799994,-0.0545,-2.3016999,-9.5322,-0.0925,std
0.013508848,0.011431906,-0.002042035,0.0946,-0.1466,-0.0295,-2.3011,-9.532499,-0.0783,std
0.019181168,0.015481071,0.0074874624,-0.032199997,-0.20549999,-0.044999998,-2.3016999,-9.5324,-0.062699996,std
0.022567106,0.02698279,0.013316862,-0.1591,-0.24479999,-0.019399999,-2.3023,-9.5324,-0.0492,std
0.027471483,0.041626103,0.015323991,-0.2685,-0.1953,0.0398,-2.3007,-9.5328,-0.0398,std
0.027541295,0.038624138,0.015603243,-0.3308,-0.106199995,0.1236,-2.2972999,-9.5336,-0.035299998,std
0.025830872,0.02136283,0.010576695,-0.41279998,-0.046499997,0.20089999,-2.2937999,-9.5345,-0.034199998,std
0.015830137,0.0085870195,0.0043807765,-0.37559998,-0.0558,0.21949999,-2.2917,-9.535,-0.033099998,std
0.0037350047,0.0036651914,0.002268928,-0.2868,-0.0657,0.1874,-2.2921999,-9.5349,-0.030499998,std
-0.00040142573,0.0021467549,0.0032637657,-0.1864,-0.1055,0.1837,-2.2946,-9.5343,-0.0268,std
-0.0024783674,-0.0031415927,0.0013613568,-0.0752,-0.1357,0.1406,-2.2979,-9.5335,-0.0229,std
-0.0043982295,-0.012182398,-0.0011519173,0.0263,-0.1366,0.0679,-2.3014998,-9.5327,-0.0189,std
-0.0029146997,-0.021118484,-0.00075049157,0.0592,-0.16679999,0.0148,-2.3049,-9.531899,-0.0148,std
-0.00036651915,-0.025411993,0.0018675023,0.0418,-0.18699999,-0.0092,-2.3072,-9.5313,-0.0103,std
0.0030194195,-0.020856684,0.0037175512,0.0526,-0.16759999,-0.0123,-2.3082,-9.531099,-0.0072,std
0.0066497047,-0.0063529983,0.0074176495,0.082499996,-0.1775,-0.0033999998,-2.3086,-9.531,-0.0063,std
0.007452556,-0.0037699111,0.007574729,0.0321,-0.1258,0.0053999997,-2.2975,-9.5337,-0.0053999997,std
0.0012217305,-0.008203047,0.006213372,-0.0149,-0.0968,0.035,-2.2993999,-9.533199,-0.0056,std
-0.0030892328,-0.0056374134,0.0021467549,-0.062699996,-0.1069,0.064399995,-2.3006,-9.5329,-0.0056,std
-0.0055152406,-0.00075049157,0.00083775807,-0.110599995,-0.117,0.053999998,-2.3016999,-9.532599,-0.0049,std
-0.0033335788,0.0012740904,0.0024260078,-0.0993,-0.088,0.042799998,-2.3033,-9.5323,-0.0036,std
-0.0009424778,0.0023038345,0.0043807765,-0.1073,-0.1276,0.0312,-2.3051,-9.531799,-0.0018,std
0.0029146997,-0.003752458,0.005934119,-0.104899995,-0.138,0.0,-2.3074,-9.5313,0.0,std
0.0037873646,-0.007592182,0.0032986724,-0.0634,-0.1582,-0.0115,-2.3097,-9.5307,0.0016,std
0.002443461,-0.00413643,0.0039095376,-0.051599998,-0.1586,-0.0122,-2.3116999,-9.5302,0.0023999999,std
-0.00055850536,0.0016755161,0.0014835298,-0.040799998,-0.1295,-0.0022,-2.3127,-9.53,0.0022,std
-0.0017453292,0.0041015237,0.00055850536,-0.0499,-0.119799994,0.0084999995,-2.3134,-9.529799,0.0013,std
-0.0025307273,0.003822271,0.0017453292,-0.048899997,-0.1004,-0.00059999997,-2.3144,-9.5296,0.00059999997,std
-0.0017278759,0.0011170107,0.0017104227,-0.0477,-0.110599995,-0.010199999,-2.3156,-9.5293,0.0004,std
-8.726646e-05,-0.0013089969,0.002984513,-0.036399998,-0.1305,-0.0011999999,-2.3171,-9.5289,0.0011999999,std
0.0013439035,-0.00034906584,0.0024260078,-0.055,-0.121,-0.0023,-2.3181,-9.5287,0.0023,std
6.981317e-05,-0.004607669,-0.00075049157,-0.053999998,-0.1506,-0.022599999,-2.3191,-9.528399,0.003,std
-0.0031415927,-0.0046251225,-0.0010646508,-0.0514,-0.1513,-0.010799999,-2.3216999,-9.5278,0.0009999999,std
-0.0009773844,-0.00041887903,-0.0009773844,-0.031799998,-0.1219,-0.0008,-2.3216999,-9.5278,0.0008,std
-3.4906585e-05,0.0012915436,-0.0010297443,-0.021699999,-0.1415,-0.0004,-2.322,-9.527699,0.0004,std
-0.00026179937,0.0050963615,-0.00017453292,-0.0142,-0.1116,0.0,-2.3197,-9.528299,0.0,std
-0.0014835298,0.010000736,-0.0006283185,-0.0082,-0.14,-0.0083,-2.3158998,-9.5292,-0.0014,std
-0.0017453292,0.011850785,-0.0019024089,-0.0116,-0.1392,-0.0404,-2.3125,-9.53,-0.0084999995,std
-0.0028099802,0.017051866,-0.0032986724,-0.0396,-0.119899996,-0.022499999,-2.3139,-9.529699,-0.0067999996,std
-0.0013089969,0.020926498,-0.0033684855,-0.0875,-0.13,0.006,-2.315,-9.5294,-0.006,std
-0.0044505894,0.023317598,-0.004468043,-0.0797,-0.1319,0.0052,-2.3228,-9.5275,-0.0052,std
-0.0037873646,0.025324726,-0.0013613568,-0.0731,-0.1336,0.0044,-2.3295,-9.5259,-0.0044,std
-0.00038397242,0.023457225,0.00085521134,-0.0643,-0.1235,0.0039,-2.3284,-9.526199,-0.0039,std
0.003036873,0.019896753,0.0052010813,-0.065299995,-0.1331,0.0039999997,-2.3274,-9.5264,-0.0039999997,std
0.0067020645,0.014870205,0.003752458,-0.0663,-0.122999996,0.014099999,-2.3264,-9.5267,-0.0042999997,std
0.006265732,0.006754424,0.004555309,-0.067499995,-0.1423,0.0149,-2.3251998,-9.526899,-0.0050999997,std
0.0077667153,0.0036128315,0.002635447,-0.088199995,-0.12239999,0.0058999998,-2.3242,-9.5272,-0.0058999998,std
0.0053930674,0.00040142573,0.0037873646,-0.069699995,-0.0927,0.0369,-2.323,-9.5275,-0.0074,std
0.003577925,-0.0019373155,0.0023736479,-0.0506,-0.1024,0.0482,-2.3225,-9.527599,-0.009,std
0.0048520155,-0.0023038345,0.0023387412,-0.0212,-0.1122,0.029399998,-2.3225,-9.527599,-0.0098,std
0.0029146997,-0.0014137167,-0.00036651915,0.0089,-0.0928,0.0196,-2.3233,-9.5274,-0.0098,std
0.0032463125,0.0004886922,-0.0022514747,0.038799997,-0.1223,0.009,-2.3237,-9.5273,-0.009,std
-0.00080285146,0.006265732,-0.0017278759,0.0296,-0.13229999,0.0079,-2.3244,-9.5271,-0.0079,std
-0.003700098,0.01654572,-0.0005410521,0.039699998,-0.13239999,0.0063,-2.3246,-9.5271,-0.0063,std
-0.0064751715,0.01855285,0.0045204028,0.0106999995,-0.1227,0.0052,-2.3251,-9.526999,-0.0052,std
-0.0014486233,0.014433873,0.008045968,0.0207,-0.1521,0.0139999995,-2.3251998,-9.526899,-0.0042,std
-3.4906585e-05,0.013665928,0.006736971,-0.0084,-0.18159999,0.0128999995,-2.3253999,-9.526899,-0.003,std
0.0030194195,0.013613568,0.008307767,-0.0393,-0.20089999,0.0021,-2.324,-9.5272,-0.0021,std
0.002268928,0.019512782,0.006544985,-0.0654,-0.1722,-0.023799999,-2.3272998,-9.5264,-0.0055,std
0.0043284167,0.019390607,0.009005899,-0.027199998,-0.122999996,-0.0535,-2.3263,-9.5267,-0.0052,std
0.0025307273,0.01420698,0.00996583,-0.047399998,-0.1621,-0.062299997,-2.3258,-9.5268,-0.0061999997,std
0.0063704518,0.011466813,0.009128072,-0.0567,-0.1426,-0.021399999,-2.3262,-9.5267,-0.0079,std
0.008499754,0.015777776,0.008028515,-0.0162,-0.1134,-0.0207,-2.3274,-9.5264,-0.008599999,std
0.008761553,0.021519909,0.009128072,-0.024999999,-0.1039,-0.0497,-2.3285,-9.5261,-0.009,std
0.009302605,0.023230333,0.010105456,-0.023699999,-0.1336,-0.0596,-2.3298,-9.5258,-0.009,std
0.01160644,0.01802925,0.009599311,-0.051999997,-0.1241,-0.0297,-2.3309,-9.525499,-0.0094,std
0.014730579,0.014067354,0.006544985,-0.07,-0.1147,-0.0101,-2.3325,-9.5252,-0.0094,std
0.013753194,0.011903145,0.004886922,-0.0778,-0.095599994,0.0095999995,-2.3346,-9.5247,-0.0095999995,std
0.00986111,0.013247049,0.0034208454,-0.0664,-0.105799995,0.0089,-2.3360999,-9.5243,-0.0089,std
0.0038571777,0.014119714,0.00017453292,-0.035499997,-0.1061,0.007999999,-2.3377,-9.5239,-0.007999999,std
0.0013439035,0.012356931,0.0033684855,-0.014099999,-0.12619999,0.0072999997,-2.3394,-9.5234995,-0.0072999997,std
0.00019198621,0.007958702,0.00408407,-0.0023999999,-0.1266,0.0066,-2.3413,-9.523,-0.0066,std
5.235988e-05,0.0004886922,0.006405358,-0.0202,-0.12709999,0.0052,-2.3430998,-9.5226,-0.0052,std
-0.0012391837,-0.0024085543,0.005253441,-0.0288,-0.1372,-0.0067,-2.3443,-9.5223,-0.003,std
0.0015184365,0.0024958209,0.004694936,-0.0279,-0.1864,0.0009,-2.3451998,-9.521999,-0.0009,std
0.0016406095,0.0023736479,0.0042586033,-0.0469,-0.167,-0.00029999999,-2.3458,-9.5219,0.00029999999,std
0.0009948377,0.0013439035,0.0013264503,-0.0469,-0.1278,-0.00029999999,-2.3458,-9.5219,0.00029999999,std
-0.00052359875,0.0024783674,0.0021118484,-0.0561,-0.12789999,0.009699999,-2.3465,-9.5217,0.0,std
-0.002321288,0.0069638635,0.002042035,-0.0357,-0.1281,0.0198,-2.3473,-9.5215,-0.0002,std
-0.0026529005,0.006789331,0.00057595863,-0.0442,-0.1382,0.0197,-2.3485,-9.5212,-0.0001,std
-0.0046774824,0.0033859387,0.0017802358,-0.0726,-0.0993,0.0492,-2.3495,-9.521,-0.0002,std
-0.0012740904,-0.00040142573,0.0014137167,-0.051999997,-0.12889999,0.0195,-2.3504999,-9.5206995,0.0,std
-0.0022863813,0.0017976891,-1.7453292e-05,-0.0806,-0.1487,0.0095,-2.3514,-9.5205,0.0002,std
-0.0047472958,0.0026005406,-0.0024609142,-0.0645,-0.13069999,-0.00029999999,-2.3576999,-9.519,0.00029999999,std
-0.0060039326,0.004468043,-0.0018675023,-0.0343,-0.1309,-0.0001,-2.3583999,-9.5188,0.0001,std
-0.0073652896,0.0043284167,-0.0009250245,-0.0447,-0.13069999,0.00049999997,-2.3579,-9.5189,-0.00049999997,std
-0.009372418,0.0030717794,-0.00061086525,-0.015899999,-0.13059999,0.0013,-2.3572,-9.5191,-0.0013,std
-0.009581857,0.0018325957,-0.00076794485,-0.0064999997,-0.1501,0.0023,-2.3567998,-9.519199,-0.0023,std
-0.006492625,0.0010995574,-0.0013613568,-0.019,-0.1396,0.0021,-2.3542,-9.5198,-0.0021,std
-0.0082205,-0.004310963,-0.00080285146,-0.037499998,-0.1301,0.0021,-2.3552,-9.5196,-0.0021,std
-0.011309734,-0.007347836,-0.004276057,-0.0382,-0.1201,0.0033,-2.3545,-9.5197,-0.0033,std
-0.013055063,-0.00710349,-0.004468043,-0.058399998,-0.11009999,-0.005,-2.3539,-9.519899,-0.0047,std
-0.014014994,-0.009267698,-0.0028099802,-0.0391,-0.12969999,0.0064,-2.3536,-9.5199995,-0.0064,std
-0.016580628,-0.014119714,-0.004415683,-0.0394,-0.119799994,0.0083,-2.3534,-9.5199995,-0.0083,std
-0.021868976,-0.024068091,-0.0070162234,-0.0298,-0.1296,0.0103,-2.3530998,-9.5201,-0.0103,std
-0.023928463,-0.030368729,-0.010314896,-0.020299999,-0.1393,0.0116,-2.3528,-9.5202,-0.0116,std
-0.026843164,-0.036407568,-0.01298525,-0.0402,-0.1294,0.012999999,-2.3525,-9.5202,-0.012999999,std
-0.029391345,-0.043406337,-0.016580628,-0.040999997,-0.1096,0.0246,-2.3516998,-9.5204,-0.0148,std
-0.028134707,-0.045413468,-0.019460421,-0.0517,-0.1094,0.0267,-2.3508,-9.520599,-0.0169,std
-0.025795966,-0.04321435,-0.022148227,-0.0523,-0.1583,0.0191,-2.3502998,-9.5208,-0.0191,std
-0.026406832,-0.03991568,-0.023422318,-0.0433,-0.14829999,0.0411,-2.3494,-9.521,-0.021499999,std
-0.020141099,-0.03694862,-0.027523842,-0.0053999997,-0.1283,0.0244,-2.3481,-9.521299,-0.0244,std
-0.017941985,-0.037332594,-0.022200588,-0.0174,-0.14739999,0.018,-2.3459,-9.5218,-0.0278,std
-0.018832102,-0.046931904,-0.02448697,-0.0686,-0.1273,0.0308,-2.3437,-9.5224,-0.0308,std
-0.02232276,-0.060074233,-0.030124383,-0.091299996,-0.11669999,0.0343,-2.3406,-9.5231,-0.0343,std
-0.025359634,-0.075939275,-0.038362335,-0.11449999,-0.1061,0.0374,-2.337,-9.524,-0.0374,std
-0.028989919,-0.09506808,-0.044977136,-0.099,-0.085499994,0.010799999,-2.333,-9.525,-0.0402,std
-0.031887166,-0.117181405,-0.049951322,-0.1228,-0.0648,-0.0056,-2.3286998,-9.526,-0.0433,std
-0.03169518,-0.14104006,-0.042760566,-0.069,-0.092999995,-0.0036,-2.3237,-9.5272,-0.0453,std
-0.03244567,-0.15072663,-0.038920842,-0.0436,-0.1313,-0.0314,-2.3197,-9.5282,-0.047,std
-0.034924038,-0.1531352,-0.02804744,0.0106,-0.1204,-0.0299,-2.3151999,-9.5293,-0.0484,std
-0.038397245,-0.14994124,-0.022863813,0.0932,-0.13859999,-0.0578,-2.3095,-9.5306,-0.0499,std
-0.042167153,-0.15221016,-0.019757127,0.14469999,-0.1074,-0.026999999,-2.3021,-9.5324,-0.0513,std
-0.0461116,-0.1497667,-0.017488198,0.077199996,-0.1152,0.0034999999,-2.2935,-9.5345,-0.0525,std
-0.05045747,-0.14906856,-0.009773844,0.0382,-0.1423,0.0532,-2.2839,-9.536799,-0.0532,std
-0.046146505,-0.15491542,-0.005078908,-0.107099995,-0.16,0.0528,-2.2758,-9.5387,-0.0528,std
-0.046076693,-0.16566665,-0.0030194195,-0.085,-0.168,0.061899997,-2.2684999,-9.5405,-0.0521,std
-0.05427974,-0.17598155,-0.0013439035,-0.0412,-0.21579999,0.0517,-2.2632,-9.541699,-0.0517,std
-0.055012777,-0.18064158,0.00572468,-0.055299997,-0.16579999,0.0521,-2.2589998,-9.5427,-0.0521,std
-0.053773593,-0.18877481,0.01966986,-0.0099,-0.1551,0.053099997,-2.2553,-9.5436,-0.053099997,std
-0.052185345,-0.21113248,0.026860617,0.0554,-0.105299994,0.094299994,-2.2521,-9.5443,-0.055,std
-0.05721189,-0.23188445,0.023893557,0.1025,-0.1441,0.0676,-2.2502,-9.5448,-0.0578,std
-0.06365216,-0.23221606,0.011885692,0.1309,-0.1831,0.078999996,-2.2491999,-9.545,-0.0594,std
-0.069115035,-0.2242399,0.00022689281,0.081199996,-0.1731,0.0605,-2.2484999,-9.5451,-0.0605,std
-0.0726057,-0.21371557,0.0048694685,0.0809,-0.114199996,0.062699996,-2.2482,-9.545199,-0.062699996,std
-0.06428047,-0.20202187,0.014695672,0.0819,-0.11449999,0.064899996,-2.2491999,-9.545,-0.064899996,std
-0.070092425,-0.18675023,0.020385446,0.1542,-0.1546,0.037,-2.2528,-9.5441,-0.0664,std
-0.07648033,-0.17589428,0.026546458,0.13949999,-0.24399999,-0.0018999999,-2.2577,-9.5429,-0.0667,std
-0.0842994,-0.16177456,0.032306045,0.0949,-0.1568,0.0081,-2.2621999,-9.5419,-0.067,std
-0.06949901,-0.16749924,0.04171337,0.0284,-0.0887,-0.0393,-2.2642999,-9.5413,-0.0685,std
-0.044505894,-0.17037904,0.042132247,-0.089099996,-0.1476,-0.0069,-2.2644,-9.5413,-0.071499996,std
-0.046163958,-0.2014808,0.028745573,-0.17629999,-0.1871,0.0559,-2.2654998,-9.540999,-0.0756,std
-0.05290093,-0.22647393,0.015323991,-0.14379999,-0.1388,0.078499995,-2.2684999,-9.540299,-0.078499995,std
-0.047054075,-0.21347122,0.017156586,-0.1004,-0.0712,0.0735,-2.2726998,-9.5392,-0.083299994,std
-0.048275806,-0.20352285,0.02417281,-0.095,-0.1019,0.0897,-2.2781,-9.5379,-0.0897,std
-0.053511795,-0.19528489,0.022619467,-0.0787,-0.064399995,0.0981,-2.2846,-9.5363,-0.0981,std
-0.056007616,-0.18894935,0.015236724,-0.0213,-0.085999995,0.0643,-2.293,-9.5342,-0.10349999,std
-0.06330309,-0.17852972,0.004118977,0.095699996,-0.1275,-0.072299995,-2.3021998,-9.532,-0.1041,std
-0.05948082,-0.15819664,0.004066617,0.071499996,-0.1484,-0.1121,-2.3074,-9.5307,-0.103599995,std
-0.04654793,-0.16338027,0.021659536,-0.042799998,-0.0805,-0.0928,-2.3107,-9.5299,-0.103199996,std
-0.04717625,-0.1677785,0.0339292,-0.1665,-0.1304,-0.113199994,-2.3144,-9.528999,-0.1024,std
-0.06211627,-0.1741315,0.023631757,-0.23979999,-0.1709,-0.0447,-2.3195999,-9.5278,-0.102299996,std
-0.07616617,-0.16313593,0.0008726646,-0.2447,-0.10349999,0.0348,-2.3244998,-9.5265,-0.10349999,std
-0.07600909,-0.14325662,0.010297443,-0.2509,0.023,0.105299994,-2.3281999,-9.5255995,-0.105299994,std
-0.050701816,-0.12679817,0.036547195,-0.3277,-0.0166,0.1776,-2.3298,-9.5252,-0.108899996,std
-0.038362335,-0.15226252,0.056950092,-0.34559998,-0.0661,0.1127,-2.3315,-9.5247,-0.1127,std
-0.049427725,-0.18860027,0.05614724,-0.2817,-0.2144,0.1138,-2.3365998,-9.5234995,-0.1138,std
-0.040927973,-0.15861551,0.046286132,-0.18599999,-0.18679999,0.0852,-2.3439999,-9.5216,-0.1147,std
-0.029077185,-0.1293638,0.05162684,-0.2197,-0.021499999,0.118099995,-2.3495,-9.5202,-0.118099995,std
-0.014625859,-0.11362094,0.04855506,-0.2773,0.095699996,0.12459999,-2.3508,-9.519899,-0.12459999,std
-0.02019346,-0.0940907,0.0371057,-0.2643,0.0751,0.0446,-2.3539999,-9.5189,-0.1328,std
-0.014852752,-0.07028441,0.025778513,-0.1884,-0.1325,-0.0503,-2.3613,-9.517099,-0.13589999,std
-0.0041538836,-0.044401176,0.02263692,-0.0393,-0.047199998,-0.11889999,-2.3731,-9.5142,-0.13589999,std
0.006318092,-0.062535144,0.029077185,-0.0668,-0.030599998,-0.1283,-2.3848,-9.5112,-0.1363,std
0.003979351,-0.06735226,0.021397736,-0.0669,-0.17029999,-0.1379,-2.3945,-9.5088,-0.1366,std
-0.0011519173,-0.06277949,0.009005899,0.0416,-0.2514,-0.21689999,-2.405,-9.5061,-0.1361,std
-0.0065798913,-0.042481314,0.003926991,0.119899996,-0.18519999,-0.1507,-2.4147,-9.503699,-0.1336,std
-0.00408407,-0.043895032,0.0038397242,0.1959,-0.069299996,-0.082499996,-2.4220998,-9.5018,-0.1331,std
0.0017627826,-0.05560619,0.009634217,0.13229999,-0.099999994,-0.0339,-2.4271,-9.5006,-0.1327,std
0.009546951,-0.060318578,0.004886922,0.117,-0.19919999,-0.1331,-2.4313998,-9.499499,-0.13159999,std
0.006387905,-0.04553564,0.00715585,0.0931,-0.27899998,-0.097799994,-2.4369,-9.498099,-0.1276,std
-0.0024783674,-0.032986723,0.015254177,0.0775,-0.1721,-0.042799998,-2.4408998,-9.4971,-0.123799995,std
-0.014625859,-0.012269665,0.031031953,0.030199999,-0.0254,0.0427,-2.4426,-9.496699,-0.121199995,std
-0.012252212,-0.013840461,0.0426733,-0.0083,-0.0256,0.081199996,-2.4433,-9.4966,-0.1204,std
-0.015725417,-0.02427753,0.037507124,-0.14479999,-0.065,0.109299995,-2.444,-9.4964,-0.1191,std
-0.01155408,-0.035255652,0.026529005,-0.26049998,-0.11449999,0.047399998,-2.4461,-9.4959,-0.1161,std
-0.003996804,-0.020123646,0.015899949,-0.2593,-0.203,0.0132,-2.4473,-9.4957,-0.1113,std
0.0017627826,-0.012182398,0.011746066,-0.1792,-0.1249,-0.009699999,-2.4489,-9.495299,-0.1078,std
-0.0018151425,-0.016632987,0.01155408,-0.0976,-0.057099998,-0.0011,-2.4521,-9.4945,-0.106699996,std
-0.005253441,-0.017645279,0.012479104,-0.081599995,-0.1274,0.0402,-2.4582,-9.4929,-0.108899996,std
-0.0026005406,-0.0049916417,0.0143117,-0.043899998,-0.1786,0.1104,-2.4665,-9.4907,-0.1104,std
0.0022863813,0.001012291,0.01595231,0.0221,-0.1707,0.1121,-2.4738,-9.4888,-0.1121,std
0.002635447,-0.00034906584,0.018797196,0.0082,-0.113299996,0.112399995,-2.4795,-9.4873,-0.112399995,std
0.0073303827,-0.0048520155,0.019757127,-0.0084999995,-0.123799995,0.0532,-2.4823,-9.4866,-0.111999996,std
0.002984513,-0.011257374,0.013910274,-0.055299997,-0.1637,0.0325,-2.4845998,-9.486,-0.1109,std
-0.0014660766,-0.0076619955,0.005323254,-0.1314,-0.076,0.0319,-2.4868999,-9.4854,-0.1103,std
0.002321288,0.008831366,0.0014486233,-0.20729999,-0.115899995,0.070999995,-2.4895,-9.4847,-0.1103,std
0.009197885,0.017051866,0.005654867,-0.1945,-0.048,0.0613,-2.4924,-9.4839,-0.1103,std
0.010332349,0.0010995574,0.008395034,-0.13239999,-0.0391,0.0313,-2.4957,-9.4831,-0.109799996,std
0.0051661744,-0.005358161,0.0062482785,-0.099199995,-0.0989,-0.027999999,-2.4995,-9.4821,-0.1092,std
0.005270894,0.001553343,0.0013439035,-0.0756,-0.14899999,-0.088599995,-2.5035,-9.4811,-0.107499994,std
0.009407325,0.01701696,0.001134464,-0.1021,-0.1399,-0.0309,-2.5063,-9.4803,-0.1063,std
0.014102261,0.016353736,0.00034906584,-0.100899994,-0.0324,-0.011399999,-2.5075998,-9.48,-0.106199995,std
0.019617502,0.004223697,-0.0010471975,-0.12,-0.0815,-0.031,-2.5081,-9.4798,-0.106199995,std
0.015673056,-0.005497787,-0.0018151425,-0.0893,-0.1113,-0.0319,-2.5093,-9.4795,-0.105299994,std
0.009808751,-0.00057595863,-0.0013089969,-0.0679,-0.151,-0.0044,-2.5111,-9.4791,-0.1034,std
0.009721484,0.015097098,-0.0009948377,-0.0861,-0.1219,0.0041,-2.5125,-9.4787,-0.1021,std
0.010751228,0.023177972,-0.0015358897,-0.075899996,-0.0436,0.052199997,-2.513,-9.4786,-0.1012,std
0.009005899,0.009826204,-0.0023387412,-0.0657,-0.1025,0.0708,-2.5133,-9.478499,-0.1002,std
0.0034382986,-0.0053407075,-0.004555309,-0.085099995,-0.181,0.0787,-2.5135999,-9.478499,-0.098299995,std
-0.00031415926,-0.012810716,-0.0038048178,-0.114599995,-0.16129999,0.0359,-2.5135,-9.478499,-0.0947,std
0.00010471976,-0.0042062434,-0.004956735,-0.0657,-0.1024,0.0325,-2.5133998,-9.4786,-0.0914,std
-0.0035953782,0.003874631,-0.0076619955,-0.0462,-0.0827,0.069699995,-2.5133,-9.4786,-0.0894,std
-0.0051138145,0.006387905,-0.0064751715,-0.0659,-0.0925,0.0881,-2.5132,-9.4787,-0.0881,std
-0.0047472958,0.0050614546,-0.0011868239,-0.036599997,-0.1121,0.067499995,-2.513,-9.4787,-0.0871,std
-0.00572468,0.00059341197,0.001256637,-0.0174,-0.102199994,0.0563,-2.5126,-9.4788,-0.0857,std
-0.0063529983,0.004171337,-0.00034906584,-0.0083,-0.1117,0.0749,-2.5119,-9.4791,-0.084699996,std
-0.005846853,0.022026055,-0.0017802358,-0.077599995,-0.141,0.10349999,-2.5112998,-9.479199,-0.0839,std
-0.0009424778,0.022724187,-0.00066322513,-0.1765,-0.1408,0.1423,-2.5105,-9.4794,-0.083399996,std
-0.0024958209,0.006091199,-0.00029670598,-0.1973,-0.081599995,0.12329999,-2.5091999,-9.4798,-0.084,std
-0.010053096,-0.0022514747,-0.0021467549,-0.13949999,-0.071499996,0.085099995,-2.5082,-9.48,-0.085099995,std
-0.0056374134,0.00842994,-0.00424115,-0.11009999,-0.14999999,0.085999995,-2.5082,-9.48,-0.085999995,std
0.0002443461,0.012863076,-0.0030019663,-0.0705,-0.1501,0.077,-2.5086,-9.479899,-0.086799994,std
5.235988e-05,-0.0021642083,-0.0036826448,-0.050699998,-0.0815,0.088,-2.5087,-9.479899,-0.088,std
-0.0010646508,-0.011798426,-0.001553343,-0.051,-0.1109,0.0213,-2.5084999,-9.479899,-0.089999996,std
-0.00424115,-0.0053930674,-0.0011868239,-0.0412,-0.1599,-0.0265,-2.5084,-9.479899,-0.0911,std
-0.00408407,0.002094395,-0.00080285146,-0.0018999999,-0.1305,-0.015999999,-2.5084999,-9.479899,-0.091699995,std
0.0012391837,0.0029146997,6.981317e-05,0.017199999,-0.0716,0.024899999,-2.5081,-9.48,-0.0936,std
0.0068416907,-0.00061086525,-0.0013962634,-0.0128,-0.1107,0.0164,-2.5074,-9.4801,-0.094799995,std
0.00816814,0.0021991148,-0.0053407075,-0.042799998,-0.16939999,-0.0321,-2.5068,-9.4803,-0.0953,std
0.0025830872,0.010663962,-0.0062831854,-0.0532,-0.1496,-0.042,-2.5061998,-9.4805,-0.0951,std
0.0035081117,0.025883233,-0.0028797933,-0.0437,-0.100499995,-0.0033,-2.506,-9.4805,-0.0947,std
0.0049218284,0.024748769,0.0019547688,-0.0733,-0.1004,0.036399998,-2.5058,-9.480599,-0.095199995,std
0.0033335788,0.0034208454,0.0041538836,-0.0733,-0.1004,0.0274,-2.5056999,-9.480599,-0.096,std
0.0029496064,-0.013264502,0.0035604716,-0.0592,-0.131,-0.0018999999,-2.5101,-9.4794,-0.096,std
0.004223697,-0.019285887,0.00033161257,-0.089499995,-0.18959999,0.0162,-2.5091999,-9.4797,-0.0946,std
0.004782202,-0.0090408055,-0.0036651914,-0.1302,-0.1205,0.044099998,-2.5077,-9.4801,-0.0931,std
-0.00041887903,0.0027925267,-0.006440265,-0.1024,-0.0711,0.063599996,-2.5061,-9.4805,-0.092999995,std
0.00012217305,0.0030717794,-0.003996804,-0.0836,-0.0708,0.044499997,-2.5052,-9.4807,-0.0936,std
0.0034906585,-0.0036128315,0.0008901179,-0.0541,-0.11009999,0.0349,-2.5053,-9.4807,-0.0938,std
0.0028448866,-0.007819075,0.0026179939,-0.0143,-0.1397,0.053999998,-2.5059,-9.4805,-0.0932,std
-0.00026179937,-0.0014660766,0.00052359875,0.0156,-0.1398,0.033,-2.5065,-9.4804,-0.0919,std
0.001553343,0.009896017,-0.00059341197,0.035099998,-0.1398,0.0016999999,-2.5063999,-9.4805,-0.089999996,std
0.0029146997,0.0059515727,-0.0006806784,-0.0343,-0.13949999,0.0297,-2.5054998,-9.4807,-0.0885,std
0.005934119,-0.002024582,-0.0009773844,-0.1337,-0.109799996,0.0592,-2.5042,-9.481,-0.0887,std
0.0066497047,-0.006143559,0.00076794485,-0.1148,-0.0703,0.059299998,-2.5033998,-9.4812,-0.0887,std
0.0029321532,-0.00017453292,0.002024582,-0.095,-0.0998,0.048499998,-2.5036,-9.4812,-0.087699994,std
-0.0005061455,0.0056374134,0.0009424778,-0.0651,-0.1293,0.0866,-2.5042,-9.4811,-0.0866,std
0.00085521134,0.0066147977,-0.0015009831,-0.0519,-0.1301,0.072299995,-2.5075,-9.4803,-0.072299995,std
0.0002443461,0.0032114058,-0.0017802358,-0.081999995,-0.13,0.0747,-2.5068998,-9.4805,-0.0747,std
0.0034906585,0.0017104227,-0.001012291,-0.0629,-0.12,-0.011899999,-2.5063,-9.480599,-0.076299995,std
0.005934119,0.00040142573,-0.00052359875,-0.0438,-0.12969999,0.0079,-2.5058,-9.4807,-0.0765,std
0.0030543262,0.002042035,-0.00095993106,-0.0635,-0.11009999,0.027199998,-2.5056999,-9.4808,-0.0762,std
-0.0004363323,0.004555309,-0.0031764992,-0.032899998,-0.1103,0.021499999,-2.5068998,-9.4805,-0.0705,std
0.0016580628,0.0059166662,-0.0010821042,-0.033,-0.100499995,0.053099997,-2.5068,-9.4805,-0.0727,std
0.0012391837,0.0004363323,-0.00038397242,-0.0826,-0.12,0.0548,-2.5061998,-9.480599,-0.0744,std
-0.0017976891,-0.0047996556,-0.0017976891,-0.0911,-0.1131,0.0374,-2.5174,-9.4777,-0.0668,std
-0.0027227136,-0.0012042772,-0.0057595866,-0.0836,-0.1125,0.0197,-2.5151,-9.4783,-0.0687,std
-0.0010821042,0.0021991148,-0.005131268,-0.0756,-0.1414,0.0109,-2.5133,-9.4788,-0.069699995,std
0.0015707964,-0.001553343,-0.0016929694,-0.051,-0.10349999,0.0083,-2.5182,-9.4775,-0.067099996,std
0.0018325957,-0.0050090947,-0.00090757123,-0.0734,-0.1028,0.030199999,-2.5154,-9.4782,-0.0695,std
0.005131268,0.00085521134,0.0006806784,-0.0265,-0.111999996,0.0221,-2.5133,-9.4788,-0.0711,std
-0.00041887903,0.004886922,-0.0018151425,-0.0528,-0.13239999,0.051,-2.5165,-9.478,-0.060799997,std
-0.0009424778,0.007923795,-0.0038920841,-0.065,-0.1024,0.063999996,-2.5140998,-9.4786,-0.063999996,std
0.00033161257,0.008063421,-0.001972222,-0.116799995,-0.111499995,0.067,-2.5112998,-9.4793,-0.067,std
-0.00029670598,-0.0021467549,-0.0015184365,-0.1485,-0.091199994,0.069299996,-2.5089998,-9.479899,-0.069299996,std
-0.0005061455,-0.011274827,-0.0035430184,-0.12239999,-0.1151,0.0412,-2.5253,-9.475699,-0.060799997,std
-3.4906585e-05,-0.0074351025,-0.0076096356,-0.0284,-0.1239,0.024,-2.5212,-9.4767,-0.0633,std
-0.00031415926,0.0028972465,-0.008901179,-0.011899999,-0.1427,0.045199998,-2.5181,-9.4776,-0.064899996,std
-0.0006806784,0.009704031,-0.009808751,-0.0444,-0.1223,0.0574,-2.5151,-9.4784,-0.0672,std
-0.00057595863,0.00827286,-0.008115781,0.0212,-0.1117,0.020499999,-2.5121,-9.4791,-0.0695,std
-0.0025307273,0.010245083,-0.005078908,0.009099999,-0.1013,0.0026,-2.5098,-9.4797,-0.0712,std
0.0006283185,0.014922565,-0.0052359877,-0.04,-0.1502,0.0352,-2.5096,-9.4798,-0.0646,std
0.0029670596,0.014660765,-0.008011062,-0.0717,-0.1496,0.037,-2.5074,-9.4804,-0.0664,std
-0.0009424778,0.008848819,-0.00996583,-0.044999998,-0.109699994,0.0385,-2.5047,-9.4811,-0.0679,std
-0.00034906584,0.0070511303,-0.010506882,-0.1065,-0.109,0.0206,-2.5019999,-9.4818,-0.0696,std
-0.0013788101,0.009180432,-0.006021386,-0.118999995,-0.1083,0.042,-2.4993,-9.4825,-0.0714,std
-0.0014137167,0.0043807765,-0.0020769418,-0.0918,-0.0881,0.073,-2.4970999,-9.4831,-0.073,std
-0.0004712389,0.0013439035,-0.0012740904,-0.053999998,-0.1074,0.0747,-2.4956,-9.483399,-0.0747,std
-0.0016580628,-0.0015358897,-0.002687807,-0.065299995,-0.1364,0.076,-2.4942,-9.4838,-0.076,std
-0.0030194195,0.0029321532,-0.0075572757,-0.057299998,-0.1752,0.057,-2.4923,-9.4843,-0.0766,std
-0.0031415927,0.010978121,-0.0077318083,-0.069299996,-0.1256,0.077599995,-2.4901,-9.4848995,-0.077599995,std
-0.0038920841,0.005375614,-0.008150687,-0.0813,-0.066199996,0.0685,-2.4879,-9.4854,-0.0783,std
-0.0053930674,-0.0017802358,-0.008045968,-0.072799996,-0.0854,0.0694,-2.4866,-9.4858,-0.0792,std
-0.004590216,0.00036651915,-0.009546951,-0.0635,-0.154,0.079799995,-2.4861,-9.4859,-0.079799995,std
-0.004415683,0.006405358,-0.008115781,-0.0427,-0.1346,0.041899998,-2.4873,-9.4855995,-0.0713,std
-0.0043284167,0.006073746,-0.006021386,-0.0173,-0.1335,0.0184,-2.4833,-9.4867,-0.067499995,std
-0.003874631,0.004310963,-0.008203047,-0.028299998,-0.123399995,0.0116,-2.4821,-9.4869995,-0.0704,std
-0.0030892328,0.009424778,-0.008307767,-0.0197,-0.1231,0.0244,-2.4809,-9.4873,-0.0734,std
-0.0025830872,0.0127409035,-0.0067020645,-0.0799,-0.1228,0.026899999,-2.4795,-9.487599,-0.076,std
-0.0074351025,0.014817845,-0.0057595866,-0.1205,-0.12239999,0.078099996,-2.4782,-9.488,-0.078099996,std
-0.010925761,0.015777776,-0.0077318083,-0.11229999,-0.121999994,0.08,-2.4766,-9.4883995,-0.08,std
-0.010384709,0.012322024,-0.008953539,-0.13329999,-0.111899994,0.0819,-2.4752,-9.4887,-0.0819,std
-0.00726057,0.0063704518,-0.009546951,-0.1244,-0.092,0.0738,-2.4743,-9.488999,-0.0836,std
-0.006981317,0.0011693706,-0.01293289,-0.1061,-0.1407,0.0654,-2.4729,-9.4893,-0.085,std
-0.005270894,-0.00076794485,-0.019861847,-0.078099996,-0.13059999,0.0668,-2.4715,-9.4896,-0.086399995,std
-0.0023038345,0.014800392,-0.027209682,-0.04,-0.1205,0.078,-2.4703999,-9.4899,-0.087799996,std
0.0012217305,0.044139378,-0.030438542,-0.0412,-0.13,0.0903,-2.4693,-9.4902,-0.0903,std
0.0055326936,0.08133234,-0.02591814,-0.022799999,-0.12969999,0.092999995,-2.468,-9.4904995,-0.092999995,std
-0.00045378561,0.10124655,-0.01850049,-0.0049,-0.080299996,0.095599994,-2.4663,-9.4909,-0.095599994,std
-0.0022165682,0.11599458,-0.014137167,-0.0067,-0.1485,0.058,-2.4645,-9.4914,-0.0973,std
-0.00075049157,0.13395402,-0.008150687,0.0103,-0.1282,0.00059999997,-2.462,-9.492,-0.0986,std
-0.004223697,0.13405874,-0.0021816615,-0.0030999999,-0.1273,-0.0278,-2.4582,-9.493,-0.099599995,std
-0.0019373155,0.11252138,-0.0012042772,-0.0672,-0.1259,-0.0266,-2.4529998,-9.4943,-0.1008,std
0.0049916417,0.104353234,-0.00082030473,-0.17109999,-0.114599995,-0.0050999997,-2.4471998,-9.4958,-0.102699995,std
0.011170107,0.11006046,-0.0053930674,-0.2252,-0.15259999,0.0174,-2.4421,-9.4971,-0.1056,std
0.008517207,0.10857693,-0.0052883476,-0.23879999,-0.16149999,0.1107,-2.4383,-9.498,-0.1107,std
0.0054628807,0.09498082,-0.0027576203,-0.23189999,-0.14119999,0.17559999,-2.4354,-9.4987,-0.11669999,std
-0.00027925268,0.09316567,-0.001256637,-0.175,-0.1016,0.1724,-2.4335,-9.4991,-0.123399995,std
-0.0022340214,0.08620181,-0.004590216,-0.058,-0.1113,0.13069999,-2.4328,-9.4991,-0.13069999,std
0.0016929694,0.080232784,-0.007452556,0.0492,-0.0916,0.0875,-2.4322,-9.4992,-0.1366,std
0.0071907565,0.07658505,-0.012566371,0.0782,-0.0523,0.023,-2.4318,-9.4993,-0.1407,std
0.010786135,0.079656824,-0.020071287,0.0082,-0.1305,-0.0521,-2.4304,-9.499499,-0.14389999,std
0.00842994,0.08726646,-0.027541295,-0.0028,-0.15959999,-0.0779,-2.4291,-9.4998,-0.1476,std
0.009337512,0.09712757,-0.029356439,0.0061,-0.1497,-0.0547,-2.4283,-9.5,-0.1512,std
0.012339477,0.10651744,-0.027227135,0.0154,-0.13,-0.0109,-2.4278,-9.5,-0.1557,std
0.014398966,0.11869984,-0.02380629,-0.024899999,-0.110199995,0.0132,-2.4266,-9.500299,-0.1603,std
0.007120943,0.12728687,-0.020664698,-0.055999998,-0.109799996,0.036399998,-2.425,-9.5006,-0.1639,std
0.00286234,0.12215559,-0.020577433,-0.0685,-0.089499995,0.058399998,-2.4222999,-9.5013,-0.1663,std
0.003926991,0.113306776,-0.021589722,-0.14119999,-0.0591,0.0504,-2.4182,-9.502299,-0.1681,std
0.005602507,0.10028662,-0.027890362,-0.2742,-0.048,0.0628,-2.4127,-9.5036,-0.1707,std
0.005986479,0.09473647,-0.035377823,-0.339,-0.0955,0.0853,-2.4068,-9.505099,-0.17359999,std
0.007173303,0.09023352,-0.04342379,-0.2857,-0.1432,0.048899997,-2.4013,-9.5064,-0.17639999,std
0.007173303,0.09114109,-0.05127777,-0.17289999,-0.12239999,0.0126,-2.3962998,-9.5076,-0.1793,std
-0.0017976891,0.080808744,-0.047054075,-0.0793,-0.072399996,0.0174,-2.3918998,-9.5086,-0.1841,std
-0.012287118,0.08197811,-0.045657814,-0.0346,-0.110599995,0.022599999,-2.3875,-9.5096,-0.1894,std
-0.015899949,0.07326892,-0.043022364,0.0098,-0.0997,0.0175,-2.383,-9.5107,-0.19399999,std
-0.011588986,0.061365776,-0.043196898,-0.0154,-0.118,0.060399998,-2.3773,-9.512,-0.1977,std
-0.0172264,0.044331364,-0.04808382,-0.061699998,-0.1261,0.103,-2.3702,-9.5137,-0.20109999,std
-0.022252947,0.035831608,-0.055134952,-0.1292,-0.1436,0.096099995,-2.3616,-9.5157995,-0.204,std
-0.01563815,0.0482409,-0.05461135,-0.0707,-0.1314,0.0892,-2.3515,-9.5182,-0.2069,std
-0.010873402,0.0641234,-0.048048913,-0.1094,-0.1096,0.113,-2.3422,-9.5204,-0.2111,std
-0.013107423,0.07405432,-0.048363075,-0.0605,-0.0681,0.0806,-2.3322,-9.522699,-0.21779999,std
-0.020525072,0.07782423,-0.05454154,0.0004,-0.1056,0.0667,-2.3246,-9.5245,-0.2236,std
-0.028815385,0.09058259,-0.06085963,0.0213,-0.22129999,0.0914,-2.3161,-9.5264,-0.2287,std
-0.022567106,0.11098549,-0.055955257,-0.0664,-0.2093,0.12619999,-2.3067,-9.5286,-0.234,std
-0.004834562,0.13496631,-0.046652652,-0.1261,-0.0892,0.1713,-2.296,-9.531,-0.2399,std
0.017488198,0.14428636,-0.03775147,-0.19559999,-0.1162,0.1372,-2.2854,-9.5334,-0.24509999,std
0.026965337,0.13320352,-0.039077923,-0.2149,-0.2122,0.103,-2.2759,-9.5356,-0.2501,std
0.013072516,0.11220722,-0.04597197,-0.2049,-0.2296,0.030399999,-2.2663,-9.5377,-0.25599998,std
0.010541788,0.091088735,-0.05108579,-0.1568,-0.119399995,0.028099999,-2.2554998,-9.54,-0.2634,std
0.00726057,0.08808677,-0.053040557,-0.1493,-0.077599995,0.0082,-2.2433999,-9.5426,-0.273,std
0.017767452,0.08714429,-0.04972443,-0.072299995,-0.094799995,0.0077,-2.2321,-9.545,-0.2823,std
0.029077185,0.07527605,-0.0429351,0.045399997,-0.1222,-0.0245,-2.2224998,-9.5471,-0.28919998,std
0.028920105,0.07688175,-0.04103269,0.17459999,-0.1695,-0.1195,-2.2144,-9.5487995,-0.2923,std
0.025115287,0.08018043,-0.038990654,0.2252,-0.2068,-0.069699995,-2.2062,-9.5507,-0.29299998,std
0.020612339,0.10049606,-0.033841934,0.22559999,-0.1557,0.0209,-2.1968,-9.5528,-0.2954,std
0.0070685833,0.117931895,-0.028117254,0.1663,-0.1338,-0.026099999,-2.1864998,-9.5550995,-0.2974,std
-0.002268928,0.10646509,-0.019914206,0.106599994,-0.1314,0.0449,-2.1757998,-9.5575,-0.2999,std
-0.005986479,0.10700613,-0.018535396,0.0563,-0.1485,0.0846,-2.1648,-9.559999,-0.3003,std
0.007592182,0.070109874,-0.020315632,-0.02,-0.1565,0.19039999,-2.1569998,-9.5618,-0.29819998,std
0.023439772,0.03424336,-0.018099064,-0.106699996,-0.095699996,0.16849999,-2.1487,-9.5637,-0.296,std
0.023020893,0.06260496,-0.018622663,-0.0664,-0.0055,0.1768,-2.1399999,-9.5657,-0.2945,std
0.024661502,0.07810348,-0.019024089,-0.1512,-0.053099997,0.0889,-2.1336,-9.5671,-0.29479998,std
0.037070792,0.0657291,-0.012234758,-0.0592,-0.1303,0.063099995,-2.1276,-9.568399,-0.2985,std
0.049968775,0.078330375,-0.018308504,0.0245,-0.1295,0.0779,-2.1231,-9.5692,-0.3035,std
0.030735249,0.08759808,-0.023439772,-0.1169,-0.1582,0.0346,-2.1189,-9.5699,-0.3092,std
0.018832102,0.08922123,-0.035342917,-0.121199995,-0.1671,0.0655,-2.1146,-9.5708,-0.3107,std
0.008360127,0.090024084,-0.037891097,-0.0758,-0.087699994,0.17029999,-2.1109,-9.5718,-0.3076,std
0.015149458,0.07082546,-0.02703515,-0.168,-0.0475,0.1195,-2.1069999,-9.5727,-0.30589998,std
0.020909045,0.050492376,-0.023125613,-0.113299996,-0.1741,0.0396,-2.1029,-9.5736,-0.3044,std
0.02380629,-0.0012915436,-0.034103733,0.040799998,-0.20279999,0.074499995,-2.1002,-9.5744,-0.3001,std
0.013334315,-0.03502876,-0.03260275,0.056399997,-0.2409,-0.0787,-2.0962,-9.575399,-0.2938,std
-0.0036651914,-0.05773549,-0.019896753,0.1004,-0.22019999,-0.041699998,-2.0911999,-9.5766,-0.2916,std
-0.020647245,-0.04769985,-0.004642576,0.1618,-0.1205,-0.0514,-2.0839,-9.578199,-0.2917,std
-0.010576695,-0.034068827,0.0009424778,0.33049998,-0.11889999,-0.0493,-2.0760999,-9.5798,-0.29389998,std
0.0146084055,-0.013718287,0.0061959187,0.44259998,-0.16669999,-0.0689,-2.0705,-9.580999,-0.29389998,std
0.024766222,-0.020926498,0.004607669,0.4276,-0.2146,-0.1396,-2.0654,-9.5822,-0.2918,std
0.025900686,-0.009250245,-0.008045968,0.22559999,-0.1935,0.012999999,-2.0595,-9.5836,-0.28759998,std
0.005078908,-0.021188296,-0.011466813,0.062699996,-0.0843,0.009,-2.0534,-9.585,-0.2836,std
0.0021118484,0.00075049157,-0.015044739,-0.0486,0.0145,0.095599994,-2.05,-9.5858,-0.282,std
0.0024958209,0.023858652,-0.0137008345,-0.0296,-0.0736,0.078,-2.0493,-9.585899,-0.28399998,std
0.00090757123,0.017889624,-0.0127583565,-0.0095999995,-0.1325,0.15709999,-2.0497,-9.5858,-0.2846,std
0.0127409035,-0.0007330383,-0.010925761,-0.018099999,-0.1327,0.0557,-2.0509999,-9.5856,-0.2812,std
0.015393804,-0.0132121425,-0.008255407,-0.0072999997,-0.1033,0.0206,-2.052,-9.5855,-0.2756,std
0.01823869,-0.009180432,-0.014049901,-0.0578,-0.14209999,0.0447,-2.0505,-9.5859995,-0.2703,std
0.017680185,-0.006021386,-0.011885692,-0.1285,-0.1514,0.052699998,-2.0484,-9.5865,-0.26839998,std
0.011117747,0.001972222,-0.0035081117,-0.102,-0.1214,0.0032,-2.0456,-9.5871,-0.268,std
0.01595231,0.002443461,0.0012217305,-0.0165,-0.1012,0.013499999,-2.0428,-9.5877,-0.2685,std
0.017453292,-0.0012042772,-0.0029670596,0.0103,-0.1006,0.0925,-2.0403,-9.5882,-0.26909998,std
0.020018926,0.008970993,-0.004694936,0.0376,-0.1099,0.040999997,-2.0382,-9.588699,-0.26659998,std
0.014748032,-0.009407325,0.00038397242,-0.0128,-0.1586,0.0473,-2.0367,-9.5892,-0.2631,std
0.0013264503,-0.021432644,-0.0040317103,-0.0743,-0.1383,0.0139999995,-2.034,-9.5898,-0.2592,std
0.00090757123,-0.019460421,-0.005026548,-0.1158,-0.118099995,0.0594,-2.0318,-9.5904,-0.2556,std
0.001850049,-0.020909045,-0.0043807765,-0.008599999,-0.0885,0.0378,-2.0311,-9.5906,-0.25349998,std
0.000715585,-0.031555552,0.0018325957,0.040599998,-0.1179,0.024999999,-2.0312998,-9.5906,-0.2505,std
0.00041887903,-0.034260813,0.0024783674,-0.0089,-0.098,0.22749999,-2.0307999,-9.590799,-0.2471,std
0.0028099802,-0.035953782,0.0026179939,0.029299999,-0.18599999,-0.040599998,-2.0298,-9.5911,-0.2436,std
3.4906585e-05,-0.029827677,-0.0011170107,0.098,-0.1369,-0.0046,-2.03,-9.5912,-0.24039999,std
-0.010506882,-0.015166911,-0.01441642,0.0581,-0.1466,0.053,-2.0293,-9.5913,-0.2393,std
-0.01855285,-0.011187561,-0.02019346,-0.011299999,-0.1267,0.100999996,-2.0284,-9.591599,-0.2383,std
-0.027750734,-0.020559978,-0.01574287,0.0075,-0.1364,0.0802,-2.0277,-9.5917,-0.23709999,std
-0.027611108,-0.006981317,-0.01966986,0.007999999,-0.116799995,0.069,-2.0282,-9.5917,-0.2357,std
-0.024993114,-0.009372418,-0.0042935098,-0.030499998,-0.1169,0.0969,-2.0288,-9.591599,-0.2342,std
-0.011274827,-0.028780479,-0.0032114058,0.0093,-0.14639999,0.085099995,-2.0295,-9.591499,-0.2322,std
0.00057595863,-0.041783184,-0.00033161257,0.0191,-0.22479999,0.074,-2.0293999,-9.591499,-0.23089999,std
0.008883726,-0.05363397,0.0023561944,-0.120799996,-0.2047,0.0067999996,-2.0267,-9.5921,-0.2323,std
0.018360864,-0.0421497,0.005794493,-0.105,-0.1353,0.0099,-2.0228999,-9.5928,-0.23539999,std
0.013439035,-0.02841396,0.0060562924,0.0195,-0.1348,0.1026,-2.02,-9.5933,-0.2399,std
0.012950343,-0.00076794485,0.00031415926,0.0255,-0.13409999,0.088,-2.0163,-9.5939,-0.24489999,std
0.0113446405,0.020490166,-0.0016231562,-0.0438,-0.0753,0.1611,-2.0154998,-9.594,-0.24929999,std
0.018221237,0.04728097,-0.0019896755,0.0635,-0.0163,0.2209,-2.0149999,-9.5941,-0.2503,std
0.022148227,0.07599164,-0.0021642083,-0.0539,-0.085,0.2091,-2.0152,-9.5941,-0.2483,std
0.023544492,0.0882613,-0.011431906,-0.1513,-0.085,0.1467,-2.0158,-9.594,-0.24479999,std
0.0143117,0.09122836,-0.018640116,-0.2383,-0.114599995,0.1611,-2.0172,-9.5939,-0.23959999,std
-0.004712389,0.09896017,-0.023719024,-0.28599998,-0.0853,0.18679999,-2.0184999,-9.593699,-0.2358,std
-0.011047934,0.09307841,-0.020699605,-0.33499998,-0.0951,0.17449999,-2.0184999,-9.5938,-0.2333,std
-0.013281955,0.07716101,-0.018535396,-0.3452,-0.075399995,0.1829,-2.0181,-9.5939,-0.23189999,std
-0.010454522,0.038257618,-0.016877335,-0.2771,-0.124199994,0.1715,-2.0175,-9.594,-0.2303,std
-0.01155408,-0.0019198621,-0.015027285,-0.24849999,-0.1437,0.1507,-2.0168,-9.5942,-0.22909999,std
-0.009669124,-0.028693212,-0.0155683365,-0.2609,-0.1529,0.120299995,-2.0142,-9.5948,-0.22809999,std
-0.018587757,-0.048834313,-0.009616764,-0.2845,-0.1717,0.1506,-2.0102,-9.5956,-0.22909999,std
-0.017662732,-0.051818825,-0.0037873646,-0.1129,-0.13159999,0.20449999,-2.0052,-9.596499,-0.2339,std
-0.01733112,-0.04230678,-0.0066671576,0.0885,-0.1308,0.22989999,-2.0008,-9.5973,-0.23969999,std
-0.0198793,-0.028344147,-0.010716322,0.1336,-0.1399,0.21589999,-1.9969,-9.598,-0.2454,std
-0.026337018,-0.011170107,-0.013927727,0.1792,-0.1295,0.1998,-1.9935,-9.598599,-0.2489,std
-0.035901424,0.017261306,-0.019914206,0.1469,-0.1486,0.1627,-1.9906,-9.599199,-0.251,std
-0.042114794,0.030368729,-0.026040312,0.036199998,-0.1284,0.055499997,-1.9878,-9.5997,-0.25169998,std
-0.04405211,0.031887166,-0.028797932,0.0444,-0.1575,0.0964,-1.9862,-9.599999,-0.25329998,std
-0.04150393,0.021711895,-0.02591814,0.053799998,-0.1378,0.12709999,-1.9856999,-9.6001,-0.2546,std
-0.036442474,0.015341444,-0.023177972,-0.045199998,-0.1475,0.1091,-1.9847,-9.6002,-0.2562,std
-0.035430185,0.009896017,-0.016947147,-0.1452,-0.1766,0.0824,-1.9828,-9.600599,-0.2589,std
-0.029757863,0.0017278759,-0.0155508835,-0.1086,-0.1762,0.106599994,-1.9801999,-9.601,-0.2635,std
-0.025673794,-0.002391101,-0.010506882,-0.073199995,-0.1363,0.1043,-1.9762,-9.6016,-0.271,std
-0.02586578,-0.008744099,-0.0051661744,-0.049,-0.1355,0.1038,-1.9711,-9.6024,-0.2803,std
-0.020769417,-0.008150687,-0.0061959187,-0.0743,-0.114999995,0.103599995,-1.9654,-9.6032,-0.29,std
-0.019163715,-0.008045968,-0.0061959187,-0.0402,-0.1241,0.1419,-1.9603,-9.604,-0.2988,std
-0.01850049,-0.010803588,-0.007033677,0.0042,-0.084199995,0.1396,-1.9557999,-9.6047,-0.30629998,std
-0.024783675,-0.008831366,-0.009930924,-0.0186,-0.1426,0.107599996,-1.9525,-9.6051,-0.3135,std
-0.026825711,-0.004694936,-0.014241886,-0.021599999,-0.122499995,0.0545,-1.9495,-9.605599,-0.3193,std
-0.035639625,0.0025830872,-0.013543755,-0.0628,-0.1321,0.039699998,-1.9475,-9.6058,-0.3241,std
-0.04129449,0.0027925267,-0.0145735,0.034199998,-0.1026,0.0835,-1.9465,-9.6058,-0.3287,std
-0.03778638,0.008464847,-0.019634955,0.0233,-0.1222,0.0774,-1.9454,-9.6059,-0.33229998,std
-0.03408628,-0.0016057029,-0.023352506,0.0222,-0.1515,0.0905,-1.9442999,-9.6061,-0.3357,std
-0.034854226,-0.0069115036,-0.023823744,0.0405,-0.1513,0.0446,-1.943,-9.6062,-0.33879998,std
-0.036878806,0.006126106,-0.020542525,-0.0298,-0.19029999,0.029399998,-1.9411999,-9.6064,-0.3432,std
-0.02549926,0.05078908,-0.019477874,-0.0325,-0.16049999,0.0343,-1.9384999,-9.6068,-0.34809998,std
-0.041905355,0.028867746,-0.002565634,0.0429,-0.121,0.0517,-1.9355999,-9.6071,-0.3557,std
-0.027907815,0.021432644,-3.4906585e-05,0.06,-0.1502,0.0883,-1.9331,-9.6073,-0.3629,std
-0.015376351,0.011972958,-0.00061086525,0.0072,-0.1301,0.13509999,-1.9293,-9.6078,-0.3705,std
-0.013020156,-0.0069115036,-0.0011170107,-0.065799996,-0.1393,0.092599995,-1.9247999,-9.608399,-0.3769,std
-0.016283922,-0.015428711,-0.0017104227,-0.1488,-0.1582,0.0695,-1.9203,-9.609099,-0.3834,std
-0.021711895,-0.023753932,-0.0017453292,-0.2214,0.0285,0.3024,-1.9162999,-9.6096,-0.3906,std
-0.025586527,-0.020629792,-0.002094395,0.029299999,-0.0885,0.1131,-1.9122,-9.6101,-0.39749998,std
-0.028012535,-0.017139133,-0.004363323,-0.0007,-0.0594,0.0928,-1.9115,-9.6098995,-0.4066,std
-0.027960174,-0.017243853,-0.0038920841,0.1265,-0.088999994,0.1381,-1.9113,-9.6097,-0.4127,std
-0.02815216,-0.010594148,-0.0039095376,0.028199999,-0.1283,0.0925,-1.9110999,-9.6096,-0.4161,std
-0.0230558,0.0014137167,-0.00832522,-0.089499995,-0.1284,0.0751,-1.9109,-9.6095,-0.4183,std
-0.02443461,0.0021991148,-0.008063421,-0.0799,-0.1383,0.0678,-1.9108,-9.6094,-0.4208,std
-0.019896753,0.0010297443,-0.00408407,-0.031,-0.14819999,0.1004,-1.9106,-9.6093,-0.42409998,std
-0.022514747,0.0008901179,-0.0019373155,-0.040999997,-0.14829999,0.0947,-1.9103999,-9.6092,-0.42819998,std
-0.020507619,-0.006492625,-0.0029496064,-0.0515,-0.118999995,0.07,-1.9096999,-9.609099,-0.4328,std
-0.019914206,-0.0082205,-0.0042935098,-0.0128999995,-0.1191,0.1139,-1.9090999,-9.609,-0.4375,std
-0.018832102,-0.009005899,-0.0056723203,-0.0037,-0.1388,0.1091,-1.9085,-9.6089,-0.4425,std
-0.024242623,-0.017732546,-0.0044505894,-0.0739,-0.12889999,0.0449,-1.9068999,-9.609,-0.44689998,std
-0.01712168,-0.021223204,-0.0013613568,-0.0265,-0.12879999,0.0202,-1.9052999,-9.609099,-0.4517,std
-0.018011797,-0.01966986,-0.002024582,0.0609,-0.13859999,0.0534,-1.9045999,-9.609099,-0.45549998,std
-0.02310816,-0.021711895,-0.006492625,0.0605,-0.1486,0.0578,-1.9042,-9.6089,-0.45979998,std
-0.021589722,-0.024050636,-0.0076270886,0.089499995,-0.129,0.0614,-1.9037,-9.6089,-0.4635,std
-0.020036379,-0.013718287,-0.008115781,0.039699998,-0.1585,0.035499997,-1.903,-9.6088,-0.46699998,std
-0.021083577,-0.004712389,-0.005550147,0.0289,-0.1192,-0.0004,-1.902,-9.6089,-0.4702,std
-0.014835299,-0.006684611,-0.0028972465,-0.0011,-0.1193,0.0524,-1.9013,-9.6088,-0.4741,std
-0.012077678,-0.0002443461,-0.0020594886,0.0184,-0.1096,0.074499995,-1.9013,-9.6087,-0.4766,std
-0.012007865,0.0009948377,-0.0024958209,0.0084,-0.1391,0.077199996,-1.9010999,-9.6086,-0.47919998,std
-0.012845623,0.0015009831,-0.0012915436,-0.061199997,-0.1489,0.0709,-1.9,-9.6086,-0.48279998,std
-0.010053096,0.0047298423,-0.0038571777,-0.0722,-0.1096,0.0937,-1.8987999,-9.6087,-0.486,std
-0.009442232,0.00710349,-0.0041015237,-0.0736,-0.0997,0.1166,-1.8973999,-9.6088,-0.48929998,std
-0.009599311,0.0021467549,-6.981317e-05,-0.074599996,-0.099599995,0.091,-1.8964,-9.6088,-0.4931,std
-0.003630285,0.009005899,0.00080285146,-0.0163,-0.1193,0.0642,-1.8959,-9.6088,-0.4957,std
-0.0037350047,0.010995574,0.0009773844,-0.046099998,-0.1291,0.0861,-1.8955,-9.6088,-0.49789998,std
-0.0030194195,0.010402163,0.0013613568,-0.017099999,-0.119399995,0.0687,-1.8951,-9.6087,-0.5002,std
-0.0030543262,0.006143559,0.0028448866,-0.0075999997,-0.1293,0.090799995,-1.8948,-9.6087,-0.5027,std
-0.0016057029,0.010768682,0.0007853982,-0.0771,-0.1292,0.083299994,-1.8939999,-9.6087,-0.505,std
-0.003281219,0.015184364,3.4906585e-05,-0.067999996,-0.1193,0.1047,-1.8931999,-9.6088,-0.5068,std
-0.005270894,0.009930924,-0.0012915436,-0.0484,-0.0998,0.12619999,-1.8931999,-9.6087,-0.5087,std
-0.0026529005,0.0070511303,0.00036651915,0.0104,-0.1293,0.107599996,-1.8932999,-9.6086,-0.5097,std
-0.0006457718,0.0056897732,0.0005061455,-0.0189,-0.1392,0.0499,-1.8932999,-9.6085,-0.5108,std
0.0018849556,0.005794493,0.0015882496,-0.0187,-0.1393,0.060599998,-1.8935,-9.608399,-0.5117,std
0.00045378561,0.006038839,-0.0007330383,-0.0084,-0.119799994,0.0614,-1.8939999,-9.6083,-0.5125,std
-0.0022340214,0.0058119465,-0.0018325957,0.0112,-0.12969999,0.052199997,-1.8941,-9.6082,-0.51309997,std
-0.00052359875,0.001256637,0.0016755161,-0.028099999,-0.11009999,0.0828,-1.8938999,-9.6082,-0.5143,std
0.0019024089,0.00710349,0.0013788101,0.020499999,-0.119899996,0.0743,-1.8936,-9.6082,-0.51559997,std
0.003577925,0.0109083075,-0.0007853982,-0.0284,-0.119899996,0.074999996,-1.8936,-9.6082,-0.51629996,std
0.0021118484,0.011013027,-0.0010995574,0.010799999,-0.1396,0.0949,-1.8937,-9.6081,-0.5166,std
-0.00045378561,0.0029146997,-0.0008901179,-0.018299999,-0.1494,0.055499997,-1.8938999,-9.6081,-0.5164,std
0.0,0.002268928,0.0027052604,-0.028299998,-0.12,0.094799995,-1.8937,-9.6081,-0.5165,std
0.0021293017,0.005969026,-0.00082030473,-0.0679,-0.0905,0.1052,-1.8932999,-9.6082,-0.5171,std
0.00143117,0.0028448866,-0.00034906584,-0.0088,-0.110199995,0.1346,-1.8936,-9.6081,-0.51699996,std
0.0027925267,-0.0010995574,-0.0004712389,-0.0084999995,-0.1494,0.095199995,-1.8937999,-9.6081,-0.5169,std
0.001972222,-0.00066322513,-0.0006283185,-0.0284,-0.1494,0.11449999,-1.8936,-9.6082,-0.5165,std
-0.000715585,0.0037350047,-0.0018675023,-0.0581,-0.12969999,0.094799995,-1.8932999,-9.6082,-0.5165,std
-0.00085521134,0.0011519173,0.001134464,-0.0191,-0.11,0.1046,-1.8930999,-9.6083,-0.5165,std
-5.235988e-05,0.002635447,0.00041887903,0.0106999995,-0.12969999,0.1143,-1.8935,-9.6082,-0.5164,std
-0.00020943952,0.0026005406,-0.0033684855,0.00059999997,-0.119899996,0.094399996,-1.8932999,-9.6082,-0.5161,std
0.0027576203,0.002321288,-0.0012391837,-0.0092,-0.1296,0.1039,-1.8931999,-9.6083,-0.5158,std
-0.00012217305,0.0023736479,3.4906585e-05,-0.0289,-0.13939999,0.0836,-1.8930999,-9.6083,-0.5151,std
-0.00010471976,0.004468043,0.0012217305,-0.038799997,-0.1393,0.1026,-1.893,-9.608399,-0.51449996,std
0.00022689281,0.0023387412,-0.0010646508,-0.058799997,-0.099999994,0.092999995,-1.8927,-9.608399,-0.5147,std
0.0010646508,-0.0014486233,-0.0010646508,0.0197,-0.1197,0.1126,-1.8928,-9.608399,-0.5147,std
0.00036651915,-0.0013439035,-0.0008901179,-0.0095999995,-0.1393,0.1028,-1.8928,-9.608399,-0.5147,std
-0.001012291,0.0013613568,-0.0010471975,-0.0691,-0.1294,0.0832,-1.8922,-9.6085,-0.5147,std
-0.0019896755,0.0021467549,-0.0018325957,-0.0301,-0.0999,0.0924,-1.8919,-9.6086,-0.5141,std
3.4906585e-05,-0.002513274,-0.0014486233,-0.0007,-0.109699994,0.1021,-1.8919,-9.6086,-0.514,std
0.0006806784,0.00012217305,-0.00052359875,-0.0299,-0.1195,0.111999996,-1.8921,-9.6086,-0.5141,std
0.0051661744,0.0031939526,-0.00083775807,-0.0497,-0.1391,0.0923,-1.8919,-9.6086,-0.514,std
0.0025307273,0.0023736479,-0.0006283185,-0.0401,-0.139,0.1017,-1.8916999,-9.6087,-0.5136,std
0.0007853982,0.0027052604,-0.0021293017,-0.0402,-0.139,0.1112,-1.8915999,-9.6087,-0.5133,std
-0.0012391837,0.0012042772,-0.0035953782,-0.0404,-0.1291,0.1113,-1.8914,-9.6088,-0.5133,std
0.00038397242,0.00013962634,-0.0036651914,-0.050499998,-0.1095,0.111499995,-1.8910999,-9.6088,-0.5135,std
0.00015707963,0.00082030473,-0.0016057029,-0.0605,-0.1192,0.1112,-1.8908999,-9.6089,-0.5132,std
0.00095993106,0.0030892328,-0.0043284167,-0.0508,-0.1486,0.120699994,-1.8908,-9.6089,-0.5129,std
0.0005410521,0.0011170107,-0.0021642083,-0.0314,-0.1583,0.100099996,-1.8906,-9.609,-0.51199996,std
0.0067020645,-0.0031764992,-0.00036651915,-0.011899999,-0.12889999,0.109299995,-1.8905,-9.609,-0.5114,std
0.002565634,6.981317e-05,-0.00015707963,-0.0319,-0.13859999,0.089499995,-1.8901,-9.609099,-0.5112,std
0.0032986724,0.004415683,-0.002268928,-0.0718,-0.1286,0.079799995,-1.8894,-9.6093,-0.51129997,std
0.0020071287,0.0015358897,-0.0021118484,-0.0431,-0.1285,0.109,-1.8887999,-9.6094,-0.5111,std
0.00059341197,-6.981317e-05,-0.0013613568,-0.0139999995,-0.1382,0.148,-1.8884,-9.6095,-0.5108,std
-0.001972222,0.0015184365,-0.0015707964,-0.034399997,-0.1184,0.138,-1.8876,-9.6097,-0.5107,std
-8.726646e-05,0.0030892328,-0.004066617,-0.0446,-0.138,0.0986,-1.8872,-9.6097,-0.5104,std
0.0035255651,0.0067020645,-0.0037873646,0.0042999997,-0.1183,0.1069,-1.8872,-9.609799,-0.5089,std
0.0037873646,-0.0039095376,-1.7453292e-05,0.0042,-0.1476,0.0964,-1.8871,-9.6098995,-0.5083,std
0.0029496064,-0.003630285,-0.00036651915,-0.0158,-0.13769999,0.0959,-1.8865999,-9.61,-0.50769997,std
-8.726646e-05,-0.002268928,-0.002024582,-0.0358,-0.1278,0.0758,-1.8862,-9.6101,-0.50729996,std
-0.0002443461,0.0,-0.0025481808,0.003,-0.1277,0.104899995,-1.8858999,-9.6102,-0.5069,std
-0.0005410521,-0.0074176495,-0.0044505894,0.012499999,-0.1277,0.124699995,-1.8855,-9.6102,-0.5071,std
-0.00027925268,-0.005270894,-0.0021816615,-0.0275,-0.1275,0.1149,-1.8847,-9.6104,-0.5072,std
0.0016755161,0.0019024089,-0.0013439035,-0.0184,-0.1273,0.1046,-1.884,-9.6105995,-0.5067,std
0.002565634,0.001256637,-0.00061086525,0.0208,-0.1273,0.103599995,-1.884,-9.6105995,-0.5057,std
0.0029496064,-0.0027750735,-0.00036651915,0.0011,-0.1469,0.1127,-1.884,-9.6107,-0.5049,std
0.0023736479,0.00041887903,0.00017453292,-0.0383,-0.12719999,0.132,-1.8836999,-9.6107,-0.5046,std
0.0019547688,0.0035953782,0.0009948377,-0.0486,-0.1369,0.1416,-1.8831999,-9.6108,-0.5044,std
0.0012042772,0.011117747,0.0009250245,-0.0592,-0.13669999,0.1217,-1.8824999,-9.611,-0.50409997,std
0.0012391837,0.004171337,0.0021991148,-0.039899997,-0.1268,0.14109999,-1.8821,-9.6111,-0.5039,std
0.0024958209,0.0002443461,0.0028274334,-0.0401,-0.1267,0.1112,-1.8819,-9.611199,-0.50339997,std
0.0021293017,0.0008901179,0.004049164,-0.0109,-0.107099995,0.1105,-1.8816999,-9.611199,-0.5027,std
0.0016406095,0.00045378561,0.0049043754,-0.0109,-0.1266,0.1195,-1.8816999,-9.6112995,-0.502,std
0.00034906584,0.0053407075,0.003944444,-0.0207,-0.156,0.0993,-1.8816999,-9.6112995,-0.5014,std
-0.001972222,0.004590216,0.005078908,-0.0106999995,-0.1266,0.118599996,-1.8819,-9.6112995,-0.501,std
-0.0023561944,0.0033161256,0.0022514747,-0.0106,-0.1463,0.108899996,-1.882,-9.6112995,-0.5011,std
0.0014486233,0.012671091,0.0012740904,-0.0004,-0.1267,0.118499994,-1.8823999,-9.611199,-0.501,std
0.0018325957,0.012461651,0.0031764992,-0.0195,-0.1268,0.1276,-1.8829,-9.6111,-0.5002,std
0.0017453292,0.014398966,0.0047996556,-0.0383,-0.1269,0.107499994,-1.8836999,-9.611,-0.4998,std
0.00036651915,0.012897983,0.004642576,-0.0176,-0.1467,0.1267,-1.8848,-9.6108,-0.49929997,std
-0.00082030473,0.0090582585,0.003228859,-0.036599997,-0.12719999,0.0973,-1.8853999,-9.6107,-0.4994,std
-0.001134464,0.0066147977,0.0018675023,-0.0356,-0.1471,0.12719999,-1.8864,-9.610499,-0.4998,std
0.0,0.004607669,0.0027925267,-0.044999998,-0.1374,0.107999995,-1.8867999,-9.6103,-0.5003,std
0.0019547688,0.0055676005,0.0059166662,-0.0448,-0.107999995,0.118,-1.887,-9.6103,-0.5004,std
0.0034906585,0.003874631,0.005323254,-0.0345,-0.1375,0.0984,-1.8874999,-9.6102,-0.5004,std
0.004066617,0.011693706,0.0029496064,-0.014099999,-0.1475,0.1083,-1.8883,-9.61,-0.50049996,std
0.0021118484,0.010698868,0.0034732053,-0.0034999999,-0.1182,0.088999994,-1.8891,-9.6098995,-0.5009,std
0.0029146997,0.007033677,0.004660029,-0.0029,-0.138,0.099199995,-1.8896999,-9.6097,-0.5013,std
0.005375614,0.0066671576,0.0056723203,-0.0418,-0.1184,0.1094,-1.89,-9.6097,-0.50159997,std
0.005358161,0.011082841,0.001972222,-0.0707,-0.118499994,0.1094,-1.8905,-9.6096,-0.5017,std
0.007225663,0.011152654,-3.4906585e-05,-0.0206,-0.1188,0.0994,-1.8915999,-9.6093,-0.5014,std
0.0024783674,0.004555309,0.002443461,-0.029399998,-0.14829999,0.1184,-1.8925999,-9.6092,-0.5008,std
0.006073746,0.00986111,0.006457718,-0.0583,-0.118999995,0.0787,-1.8930999,-9.609099,-0.5004,std
0.009564404,0.017156586,0.0052010813,-0.0479,-0.12889999,0.0786,-1.8937,-9.609,-0.5003,std
0.012915436,0.020751964,0.008639379,-0.0078,-0.1291,0.097799994,-1.8945999,-9.6088,-0.49989998,std
0.013055063,0.016388642,0.007452556,0.0127,-0.139,0.106699996,-1.8956,-9.6087,-0.49899998,std
0.015934857,0.016510814,0.004363323,-0.065299995,-0.139,0.1158,-1.8959,-9.6087,-0.4983,std
0.01680752,0.020176006,0.0051661744,-0.0752,-0.1292,0.104899995,-1.8958,-9.6087,-0.49719998,std
0.021083577,0.020751964,0.006562438,-0.064899996,-0.119399995,0.104499996,-1.8963,-9.6087,-0.49679998,std
0.020961404,0.024556782,0.0058119465,-0.0638,-0.1196,0.1232,-1.8974999,-9.6085,-0.49589998,std
0.019739674,0.02576106,0.009756391,-0.053099997,-0.1099,0.1318,-1.8982999,-9.608399,-0.4946,std
0.020961404,0.027436575,0.012583824,-0.0026,-0.12969999,0.1299,-1.8998,-9.6082,-0.4928,std
0.016877335,0.030141836,0.010506882,-0.0307,-0.1299,0.12799999,-1.9010999,-9.608,-0.4908,std
0.0127583565,0.023719024,0.008552114,-0.0692,-0.100499995,0.1352,-1.9017999,-9.608,-0.4883,std
0.007871435,0.017575465,0.0061086523,-0.039,-0.1103,0.1424,-1.9025999,-9.608,-0.48569998,std
0.0030892328,0.007958702,0.0055326936,-0.0379,-0.1496,0.15869999,-1.9037,-9.6079,-0.48229998,std
0.0024260078,0.012479104,0.0034382986,-0.0664,-0.1398,0.13589999,-1.9045999,-9.6079,-0.4791,std
0.0012740904,0.0131946895,0.0028972465,-0.054899998,-0.1204,0.113299996,-1.9063,-9.607699,-0.47619998,std
0.004712389,0.0132121425,0.0034557518,-0.0233,-0.1599,0.1397,-1.9085,-9.6075,-0.47309998,std
0.0019896755,0.0141546205,0.0034732053,-0.0412,-0.1503,0.107999995,-1.9102,-9.6072,-0.4709,std
0.004956735,0.020071287,0.00090757123,-0.0201,-0.1309,0.077,-1.9117,-9.606999,-0.4692,std
0.0026529005,0.025900686,0.0012391837,-0.048499998,-0.1311,0.095599994,-1.9126999,-9.6068,-0.46829998,std
0.0006457718,0.01855285,0.002321288,-0.037699997,-0.15089999,0.1442,-1.9137,-9.6067,-0.46789998,std
-0.00010471976,0.010384709,0.002565634,-0.0469,-0.1313,0.1441,-1.9143,-9.6066,-0.4678,std
0.0016231562,0.0038571777,0.005742133,-0.075899996,-0.13149999,0.1345,-1.9147999,-9.6064,-0.46789998,std
0.0026703537,0.0054454273,0.0033510323,-0.0655,-0.13149999,0.134,-1.9152999,-9.6064,-0.46739998,std
0.0016057029,0.0017104227,0.00027925268,-0.045399997,-0.1218,0.124199994,-1.9159,-9.606299,-0.4675,std
-0.00041887903,0.00015707963,0.00059341197,-0.065,-0.13159999,0.1337,-1.9159,-9.606299,-0.46719998,std
-0.002268928,-0.00034906584,1.7453292e-05,-0.015899999,-0.1317,0.124299996,-1.9159,-9.6062,-0.4675,std
-0.0047996556,0.0012217305,-8.726646e-05,-0.0352,-0.1219,0.114999995,-1.9161999,-9.6062,-0.468,std
-0.0017627826,-0.0016057029,-0.0015009831,-0.024999999,-0.1122,0.1152,-1.9166,-9.6061,-0.46829998,std
-0.00085521134,-0.00020943952,-0.001134464,-0.023899999,-0.1222,0.1346,-1.9176999,-9.6059,-0.468,std
-0.0033161256,0.0,-0.0004363323,-0.0233,-0.14199999,0.13409999,-1.9183999,-9.6058,-0.4676,std
-6.981317e-05,-0.0015009831,-0.00033161257,-0.0526,-0.1321,0.0945,-1.9183999,-9.6058,-0.4671,std
-0.001012291,-0.0048520155,0.00061086525,-0.0524,-0.14199999,0.1139,-1.9186,-9.6057,-0.46699998,std
6.981317e-05,-0.0026005406,-0.0017802358,-0.0426,-0.12239999,0.1239,-1.9186,-9.6057,-0.4671,std
-8.726646e-05,-0.004118977,-0.0006457718,-0.0524,-0.1322,0.16399999,-1.9186,-9.6057,-0.468,std
-0.00052359875,-0.004782202,-0.0010471975,-0.0722,-0.12239999,0.124699995,-1.9185,-9.6057,-0.468,std
-0.0012740904,-0.010943214,-0.00075049157,-0.0429,-0.1223,0.12459999,-1.9182999,-9.6058,-0.4678,std
0.00019198621,-0.016441,-0.0025481808,-0.0528,-0.1322,0.105399996,-1.9182999,-9.6057,-0.4682,std
-0.001972222,-0.0118333325,-0.0006981317,-0.0332,-0.1125,0.124699995,-1.9181999,-9.6058,-0.46789998,std
-0.0017453292,-0.010314896,-0.00057595863,-0.033,-0.12239999,0.1147,-1.9183999,-9.6057,-0.4678,std
0.00031415926,-0.008517207,-0.0018325957,-0.0431,-0.1223,0.1046,-1.9181999,-9.6058,-0.46739998,std
-0.0013613568,-0.009773844,-0.0024609142,-0.0137,-0.1321,0.1239,-1.9181,-9.6058,-0.4671,std
-0.003403392,-0.0037873646,-0.0036651914,-0.0039999997,-0.1222,0.1139,-1.918,-9.6059,-0.4669,std
-0.0023561944,-0.002687807,-0.0028797933,-0.0433,-0.132,0.1136,-1.918,-9.6059,-0.4666,std
0.00061086525,-0.003874631,-0.0017453292,-0.0534,-0.1025,0.1226,-1.9176999,-9.606,-0.4658,std
0.00012217305,0.00010471976,-0.0013962634,-0.0436,-0.1319,0.12239999,-1.9176999,-9.606,-0.46559998,std
0.0030019663,0.0024609142,-0.0028972465,-0.0534,-0.1417,0.1516,-1.9176999,-9.606,-0.46539998,std
0.0027052604,0.0018325957,-0.003874631,-0.083,-0.1318,0.102,-1.9174,-9.6061,-0.4649,std
-0.0012391837,0.00027925268,-0.0027925267,-0.0932,-0.1121,0.15079999,-1.9171,-9.6062,-0.4646,std
-0.002687807,0.0040317103,-0.004555309,-0.0938,-0.111999996,0.1512,-1.9164,-9.606299,-0.46499997,std
-0.0023387412,0.0037350047,-0.007452556,-0.1042,-0.13149999,0.1514,-1.9159,-9.6064,-0.46519998,std
-0.0028972465,-0.0020594886,-0.006562438,-0.0554,-0.13149999,0.151,-1.9156,-9.6064,-0.4648,std
-0.0055152406,-0.0038048178,-0.003926991,-0.0262,-0.1314,0.1408,-1.9153999,-9.6065,-0.46449998,std
-0.005026548,-0.002268928,-0.0066147977,-0.036599997,-0.1313,0.100999996,-1.9147999,-9.6066,-0.46379998,std
-0.0029670596,-0.0009250245,-0.0055676005,-0.0569,-0.1213,0.0906,-1.9140999,-9.6068,-0.4632,std
-0.0063529983,0.0,-0.0066671576,-0.018299999,-0.1408,0.1004,-1.9135,-9.6069,-0.4633,std
-0.004363323,-6.981317e-05,-0.004171337,-0.019199999,-0.1406,0.14999999,-1.9125999,-9.6071,-0.46379998,std
-0.009128072,0.0021467549,-0.0060039326,-0.0502,-0.1305,0.1309,-1.9110999,-9.6074,-0.46429998,std
-0.0059166662,-0.00052359875,-0.0052359877,-0.0218,-0.1303,0.141,-1.91,-9.6076,-0.4646,std
-0.007452556,-0.001012291,-0.0027576203,-0.051999997,-0.1302,0.1319,-1.9093,-9.607699,-0.46539998,std
-0.0016057029,-0.004694936,-0.0025830872,-0.0532,-0.1496,0.1425,-1.908,-9.6079,-0.46609998,std
-0.0043458696,-0.005654867,-0.003874631,-0.024799999,-0.1396,0.15269999,-1.907,-9.6081,-0.46649998,std
-0.0054454273,-0.0039618975,-0.0048520155,-0.065299995,-0.119799994,0.124299996,-1.9058,-9.6083,-0.4675,std
-0.0072954763,-0.0033684855,-0.0026005406,-0.036599997,-0.1393,0.1348,-1.905,-9.608399,-0.4682,std
-0.007923795,0.0011519173,-0.0033161256,-0.0378,-0.14899999,0.1365,-1.9038,-9.6085,-0.46989998,std
-0.0062308256,0.00076794485,-0.0062308256,-0.0191,-0.119399995,0.1375,-1.9029,-9.6087,-0.4709,std
-0.0060562924,-0.0042586033,-0.0042586033,-0.0196,-0.1292,0.12889999,-1.9023999,-9.6087,-0.4721,std
-0.0058643064,-0.0051487214,-0.0011868239,-0.0299,-0.1291,0.1387,-1.9018999,-9.6088,-0.4721,std
-0.004555309,0.0019198621,-0.004276057,-0.0502,-0.129,0.1195,-1.9013,-9.6089,-0.47259998,std
-0.0064228117,0.0024085543,-0.0058119465,-0.070599996,-0.1387,0.120299995,-1.9003999,-9.609,-0.47329998,std
-0.008831366,-0.00076794485,-0.004223697,-0.0123,-0.13859999,0.1214,-1.8999,-9.609099,-0.47439998,std
-0.0056199604,-0.0024260078,-0.0021642083,-0.022699999,-0.1484,0.103199996,-1.8993,-9.609099,-0.4759,std
-0.007836528,-0.0017976891,-0.0033161256,-0.0729,-0.1188,0.1337,-1.8980999,-9.6093,-0.47689998,std
-0.0048694685,0.0015358897,-0.0048171086,-0.0148,-0.1187,0.1345,-1.8973999,-9.6094,-0.47779998,std
-0.0059515727,-0.00408407,-0.0028797933,-0.0052,-0.1285,0.1451,-1.8972,-9.6094,-0.4786,std
-0.0074176495,-0.003403392,-0.0030892328,-0.045199998,-0.15779999,0.12629999,-1.8964,-9.6095,-0.4793,std
-0.00816814,0.0021816615,-0.002635447,-0.046299998,-0.1478,0.0981,-1.8952999,-9.6097,-0.48049998,std
-0.007400196,0.0032463125,-0.0031939526,-0.0275,-0.1281,0.1192,-1.8944999,-9.609799,-0.482,std
-0.0056897732,0.003159046,-0.004310963,0.011299999,-0.1281,0.0906,-1.8942,-9.609799,-0.4829,std
-0.0070511303,0.0021467549,-0.0055152406,-0.0284,-0.1281,0.16049999,-1.8936,-9.6098995,-0.48409998,std
-0.007644542,0.00095993106,-0.0037175512,-0.049,-0.118099995,0.1417,-1.8925999,-9.61,-0.48499998,std
-0.005305801,0.0016057029,-0.001134464,-0.0495,-0.12789999,0.1131,-1.8921,-9.61,-0.4858,std
-0.00720821,-0.0019198621,-0.001012291,-0.0598,-0.1278,0.1143,-1.8915999,-9.6101,-0.4869,std
-0.005410521,-0.0014486233,-0.0029146997,-0.0603,-0.1278,0.1158,-1.8910999,-9.6101,-0.48839998,std
-0.0050440016,-0.007400196,-0.0024958209,-0.021699999,-0.1179,0.13679999,-1.8905,-9.6102,-0.48979998,std
-0.0046774824,-0.003281219,-0.0011170107,-0.0029,-0.1374,0.12799999,-1.8895999,-9.6103,-0.49089998,std
-0.0056723203,-0.0011868239,-0.002094395,-0.0334,-0.1275,0.0901,-1.8886,-9.6104,-0.4921,std
-0.007993608,0.0030194195,-0.004049164,-0.0145,-0.1372,0.120799996,-1.8879,-9.610499,-0.4935,std
-0.006789331,0.0015882496,-0.001553343,0.0047999998,-0.1372,0.13149999,-1.8877,-9.610499,-0.4944,std
-0.0032114058,0.004590216,0.00076794485,0.0046,-0.117599994,0.1131,-1.8874999,-9.610499,-0.4955,std
0.00055850536,0.009337512,0.0015009831,-0.035,-0.1372,0.094299994,-1.887,-9.610499,-0.4964,std
0.0005061455,0.003228859,0.00033161257,-0.0354,-0.1371,0.1046,-1.8865999,-9.6105995,-0.4969,std
0.00286234,0.0050090947,0.0014137167,-0.0356,-0.147,0.1347,-1.8864,-9.6105995,-0.4976,std
-0.00033161257,0.0047996556,0.0013089969,-0.065299995,-0.1371,0.1061,-1.8860999,-9.6105995,-0.4983,std
0.0013264503,0.0057595866,0.0017802358,-0.075899996,-0.12719999,0.12719999,-1.8852999,-9.6107,-0.4998,std
0.00083775807,0.0033161256,-0.00015707963,-0.0468,-0.107599996,0.108799994,-1.885,-9.6107,-0.501,std
0.00090757123,0.0045029493,-0.0009424778,-0.0565,-0.1175,0.129,-1.8851,-9.6105995,-0.5017,std
0.0011693706,0.0019896755,0.0015707964,-0.0268,-0.1077,0.1095,-1.8853999,-9.6105995,-0.5017,std
0.003700098,0.0006283185,0.0028099802,-0.016999999,-0.1469,0.118999995,-1.8853999,-9.6105995,-0.5015,std
0.0010646508,-0.000715585,-0.00038397242,-0.036399998,-0.1568,0.118499994,-1.8856,-9.6105995,-0.501,std
-0.00019198621,-0.0021642083,-0.00031415926,0.0128,-0.1372,0.099,-1.8858,-9.610499,-0.501,std
0.0016406095,-0.002513274,-0.0010297443,-0.0064,-0.1373,0.1184,-1.8860999,-9.610499,-0.5008,std
0.0,0.0021642083,-0.00045378561,-0.026099999,-0.1274,0.1082,-1.8860999,-9.610499,-0.50049996,std
0.0031415927,0.0057595866,0.00027925268,-0.0557,-0.1274,0.1081,-1.8858999,-9.610499,-0.5003,std
0.0041538836,0.003752458,-0.00061086525,-0.0358,-0.117599994,0.137,-1.8862,-9.610499,-0.4998,std
0.006143559,0.00408407,0.00026179937,-0.0254,-0.1373,0.1361,-1.8867999,-9.6104,-0.49899998,std
0.003996804,0.0042586033,-0.0004886922,-0.035299998,-0.1274,0.1355,-1.8866999,-9.610499,-0.49839997,std
0.0029496064,0.0024609142,-0.0004886922,-0.074499995,-0.1372,0.096,-1.8867999,-9.610499,-0.49809998,std
0.002513274,0.0023038345,0.0,-0.0647,-0.117599994,0.124699995,-1.8866999,-9.610499,-0.4974,std
0.00017453292,-0.0032463125,-0.0002443461,-0.054899998,-0.1274,0.1343,-1.8866999,-9.610499,-0.4971,std
0.0016580628,-0.005270894,-0.00017453292,-0.035299998,-0.1273,0.1533,-1.8866999,-9.6105995,-0.4966,std
3.4906585e-05,-0.0042062434,0.0006806784,-0.0257,-0.1273,0.1329,-1.8865,-9.6105995,-0.4957,std
-0.0005410521,0.0026179939,0.0004712389,-0.045199998,-0.12719999,0.1415,-1.8865999,-9.6107,-0.49449998,std
0.00075049157,0.0029321532,-0.00075049157,-0.035499997,-0.12709999,0.1309,-1.8865,-9.6108,-0.49379998,std
0.0025481808,0.0021816615,-0.0006981317,-0.0356,-0.12709999,0.1301,-1.8864,-9.6108,-0.49289998,std
-0.00040142573,0.0051661744,-0.001134464,-0.025899999,-0.1467,0.1392,-1.8863,-9.6109,-0.4922,std
-0.0026703537,0.0017278759,-0.0011693706,-0.0748,-0.13679999,0.1583,-1.8864,-9.6109,-0.4917,std
-0.0013264503,0.0021991148,-0.0012042772,-0.055099998,-0.127,0.1478,-1.8865,-9.6109,-0.491,std
-0.0022340214,-0.0013962634,-0.0006981317,-0.0058999998,-0.13679999,0.14739999,-1.8866999,-9.6109,-0.49069998,std
-0.0023387412,0.0015707964,-0.001553343,-0.0548,-0.1467,0.14729999,-1.8867999,-9.6109,-0.4906,std
-0.0004363323,-0.0021816615,-0.0015009831,-0.0354,-0.13679999,0.117599994,-1.8865999,-9.6109,-0.49019998,std
0.0,-0.003926991,0.0006457718,-0.015899999,-0.14649999,0.1365,-1.8864,-9.611,-0.4895,std
0.0014137167,-0.0037699111,0.00052359875,-0.045599997,-0.13669999,0.1268,-1.8862,-9.611,-0.48959997,std
-0.0011170107,-0.0010646508,-0.00010471976,-0.0262,-0.1268,0.127,-1.8859999,-9.6111,-0.48979998,std
-0.0012915436,-0.0016057029,0.0002443461,-0.0167,-0.1268,0.117199995,-1.8857,-9.6111,-0.4899,std
-0.00012217305,0.0041015237,-0.0009773844,-0.0071,-0.117,0.1466,-1.8855,-9.6111,-0.48979998,std
-0.0010646508,0.0023387412,0.00031415926,-0.026999999,-0.1267,0.1369,-1.8851999,-9.611199,-0.48999998,std
-0.00034906584,0.003036873,0.00017453292,-0.056599997,-0.1267,0.1072,-1.885,-9.6112995,-0.4897,std
0.00019198621,-0.0007853982,-0.0013788101,-0.0368,-0.1365,0.146,-1.8851999,-9.611199,-0.4892,std
-0.0008726646,-0.0046774824,-0.00019198621,-0.0661,-0.1267,0.1257,-1.8852999,-9.611199,-0.4886,std
0.0,-0.0035430184,0.00076794485,-0.0758,-0.1267,0.1256,-1.8853999,-9.611199,-0.4885,std
-0.0016406095,-0.0008726646,-0.00083775807,-0.0071,-0.1463,0.1451,-1.8855,-9.611199,-0.4883,std
0.0010995574,0.0024958209,-0.00082030473,-0.0466,-0.107,0.105799995,-1.8852999,-9.6112995,-0.4883,std
0.0017802358,0.0028274334,0.003159046,-0.017099999,-0.1364,0.145,-1.8852999,-9.6112995,-0.48819998,std
0.0032637657,0.0028274334,0.0020594886,-0.0563,-0.1364,0.115499996,-1.8852999,-9.6112995,-0.4881,std
0.0014137167,0.0025830872,0.0012915436,-0.0369,-0.116799995,0.1248,-1.8851,-9.6112995,-0.4877,std
0.0019024089,0.003159046,-0.001012291,-0.0565,-0.1462,0.1443,-1.8851,-9.6112995,-0.48749998,std
0.0008901179,0.005026548,0.00036651915,-0.066,-0.1266,0.1633,-1.8853999,-9.6112995,-0.487,std
-0.00040142573,0.0029496064,0.0,-0.085599996,-0.1266,0.1241,-1.8853999,-9.6112995,-0.4869,std
0.00013962634,0.0,0.00019198621,-0.0563,-0.1364,0.1432,-1.8852999,-9.6114,-0.4865,std
-0.0019198621,-0.00076794485,-0.0010821042,-0.0557,-0.116799995,0.1428,-1.8858999,-9.6112995,-0.486,std
-0.00040142573,-0.0050614546,0.00013962634,-0.025899999,-0.1267,0.14209999,-1.8863,-9.611199,-0.48529997,std
0.00045378561,-0.0028797933,-0.00013962634,-0.0453,-0.1365,0.0927,-1.8865,-9.611199,-0.4849,std
0.0006283185,0.00029670598,-0.001256637,-0.0357,-0.1463,0.1313,-1.8863,-9.6112995,-0.48439997,std
-0.0014137167,-0.0036477381,-0.0005061455,-0.0356,-0.1365,0.1116,-1.8864,-9.6112995,-0.4842,std
-0.0010995574,-0.0042935098,-0.0010646508,-0.025799999,-0.1364,0.111499995,-1.8863,-9.6112995,-0.48409998,std
-0.0009424778,-0.00055850536,0.00036651915,-0.045399997,-0.1364,0.1209,-1.8864,-9.6112995,-0.4838,std
-0.00012217305,0.0014137167,-0.0013264503,-0.055299997,-0.107,0.1405,-1.8863,-9.6112995,-0.48369998,std
-0.00027925268,-3.4906585e-05,-0.0018151425,-0.0356,-0.116799995,0.14019999,-1.8864,-9.6112995,-0.4834,std
-0.00036651915,-0.0043284167,-0.0012391837,-0.0844,-0.107,0.12,-1.8865999,-9.6112995,-0.4829,std
-0.002094395,-0.0019024089,-0.0024085543,-0.0748,-0.1364,0.14899999,-1.8865,-9.6112995,-0.4824,std
-0.0027052604,-0.0030892328,-0.0016406095,-0.0747,-0.1364,0.139,-1.8865,-9.6112995,-0.4822,std
0.00052359875,-0.0010646508,-0.0011170107,-0.0651,-0.11669999,0.1584,-1.8864,-9.6114,-0.48209998,std
0.00080285146,-0.0024085543,-0.002565634,-0.025799999,-0.11669999,0.1092,-1.8864,-9.6114,-0.48189998,std
-0.00010471976,-0.00083775807,-0.002321288,-0.0652,-0.1461,0.1286,-1.8863,-9.6114,-0.48169997,std
-0.0049916417,-0.00022689281,-0.0031415927,-0.0556,-0.1264,0.118599996,-1.8859999,-9.6115,-0.48139998,std
-0.0023736479,0.0024958209,-0.0037175512,-0.036199998,-0.146,0.1379,-1.8858,-9.6115,-0.4811,std
-0.0008901179,0.0016406095,-0.004310963,-0.0659,-0.106699996,0.1378,-1.8855,-9.6116,-0.48099998,std
0.00020943952,0.002391101,-0.0048520155,-0.0466,-0.1165,0.138,-1.8851999,-9.6116,-0.4813,std
-0.00082030473,0.00080285146,-0.0037350047,-0.0468,-0.1458,0.15709999,-1.885,-9.6117,-0.48079997,std
-0.0023038345,0.0019198621,-0.0020594886,-0.0667,-0.1261,0.107599996,-1.8847,-9.6118,-0.4802,std
-0.002635447,-0.000715585,-0.0012391837,-0.0475,-0.126,0.14639999,-1.8843,-9.611899,-0.4798,std
-0.001134464,0.0034906585,-0.0043284167,-0.038399998,-0.1161,0.15709999,-1.8836,-9.6119995,-0.4807,std
-0.0022514747,0.0037350047,-0.003700098,-0.039,-0.1258,0.1574,-1.8829999,-9.6121,-0.48099998,std
-0.0017627826,0.0018849556,-0.0050440016,-0.0398,-0.115899995,0.1378,-1.8822,-9.6122,-0.48099998,std
-0.0026529005,-5.235988e-05,-0.0025830872,-0.0506,-0.1157,0.118,-1.8812,-9.6124,-0.4809,std
-0.0034906585,-0.0005061455,-0.0015358897,-0.060999997,-0.13509999,0.1179,-1.8806,-9.612599,-0.48079997,std
-0.0026703537,0.0032986724,-0.0051138145,-0.0614,-0.13509999,0.13769999,-1.8801999,-9.612599,-0.48099998,std
-0.0022863813,0.002094395,-0.006510078,-0.0126,-0.1252,0.1574,-1.88,-9.6126995,-0.48099998,std
-0.0052883476,-0.0004363323,-0.0058119465,-0.0429,-0.1153,0.1281,-1.8791,-9.6128,-0.4811,std
-0.005131268,-0.003979351,-0.001850049,-0.082899995,-0.1249,0.1285,-1.8784,-9.613,-0.4815,std
-0.005253441,0.0019547688,-0.0035953782,-0.074,-0.114999995,0.1287,-1.8773999,-9.6131,-0.48169997,std
-0.0029321532,0.0027925267,-0.006091199,0.0037999998,-0.1541,0.1387,-1.8768,-9.6132,-0.48189998,std
-0.0038920841,0.0010821042,-0.005550147,0.0033999998,-0.105,0.1389,-1.8765,-9.613299,-0.48209998,std
-0.004171337,0.004555309,-0.004607669,-0.026899999,-0.13419999,0.1295,-1.8755,-9.6135,-0.4825,std
-0.003752458,0.005026548,-0.0018675023,-0.0674,-0.134,0.0906,-1.8742,-9.6137,-0.4829,std
-0.0051661744,0.006091199,-0.0027750735,-0.0587,-0.124,0.14039999,-1.8730999,-9.6139,-0.48369998,std
-0.005794493,0.005969026,-0.0024609142,-0.0198,-0.1338,0.1607,-1.8728,-9.6139,-0.4843,std
-0.004555309,0.006928957,-0.0017453292,-0.030299999,-0.1435,0.15179999,-1.8721,-9.613999,-0.4852,std
-0.006143559,0.0043284167,-0.0014660766,-0.0609,-0.1433,0.1326,-1.8708999,-9.6142,-0.48569998,std
-0.0054454273,0.00033161257,-0.0017278759,-0.0718,-0.113699995,0.1528,-1.8698,-9.6144,-0.4863,std
-0.006126106,-0.0005410521,-0.0012042772,-0.072799996,-0.13319999,0.14379999,-1.8689,-9.6145,-0.48709998,std
-0.0074176495,-0.00083775807,-0.002321288,-0.0143,-0.12329999,0.1347,-1.8685,-9.6146,-0.4878,std
-0.006457718,0.00031415926,-0.0016057029,-0.024699999,-0.1135,0.1161,-1.8678999,-9.6146,-0.4888,std
-0.004223697,0.0020594886,-0.0030717794,-0.0154,-0.15259999,0.12709999,-1.8672999,-9.614699,-0.4899,std
-0.0048694685,0.0022863813,-0.001134464,-0.0158,-0.133,0.0888,-1.8669,-9.614699,-0.49089998,std
-0.0057595866,0.0025307273,0.00013962634,-0.025999999,-0.15259999,0.1292,-1.8665999,-9.614699,-0.49199998,std
-0.0035604716,0.0051487214,0.0007330383,-0.0361,-0.133,0.12019999,-1.8663,-9.614699,-0.49289998,std
-0.0018675023,0.0084823,0.00052359875,-0.065799996,-0.133,0.1408,-1.8661,-9.614699,-0.49379998,std
-0.0027052604,0.0046251225,0.0012217305,-0.0466,-0.113299996,0.1322,-1.8656,-9.6147995,-0.49499997,std
-0.003926991,0.00026179937,0.0004363323,-0.0469,-0.1428,0.1431,-1.8652999,-9.6147995,-0.49609998,std
-0.0048520155,0.0006981317,0.0005410521,-0.037699997,-0.1231,0.1339,-1.8647,-9.6147995,-0.49679998,std
-0.0041015237,-0.0019547688,0.001553343,-0.077199996,-0.1231,0.1349,-1.8644999,-9.6147995,-0.49769998,std
-0.0015707964,0.002391101,0.0004886922,-0.057499997,-0.113299996,0.14549999,-1.8644999,-9.6147995,-0.49859998,std
-0.0013264503,0.0023387412,0.0,-0.047599997,-0.1232,0.1462,-1.8646,-9.614699,-0.49929997,std
-0.0016406095,-0.001850049,0.0,-0.018199999,-0.15259999,0.1173,-1.8646,-9.614699,-0.49969998,std
-0.0055850535,-0.003577925,-0.000715585,-0.018,-0.14289999,0.1276,-1.8648,-9.614699,-0.5002,std
-0.0031415927,0.00083775807,-0.00041887903,-0.037499998,-0.12329999,0.1085,-1.8649,-9.6146,-0.5007,std
-0.004049164,0.001972222,-5.235988e-05,-0.0276,-0.1037,0.1091,-1.865,-9.6145,-0.5014,std
-0.0017802358,0.0017104227,0.00040142573,-0.0075999997,-0.13329999,0.1391,-1.8652999,-9.6145,-0.50189996,std
-0.0043807765,-0.0008726646,0.0013788101,-0.027199998,-0.13329999,0.1293,-1.8654,-9.6144,-0.502,std
-0.003874631,-0.0011519173,0.00059341197,-0.0468,-0.1529,0.1294,-1.8654,-9.6144,-0.502,std
-0.0050963615,-0.0109083075,0.00022689281,-0.0369,-0.13329999,0.1293,-1.8655,-9.6144,-0.50189996,std
-0.0043458696,-0.008761553,0.0022863813,-0.027199998,-0.113699995,0.1496,-1.8654,-9.6144,-0.5026,std
-0.0023387412,-0.010594148,0.00076794485,-0.0468,-0.1235,0.14,-1.8654,-9.6144,-0.5029,std
-0.001553343,-0.0042586033,-0.0006981317,-0.0273,-0.1235,0.1309,-1.8652999,-9.6144,-0.5035,std
-0.0029670596,-0.0078016217,-0.0006457718,-0.027199998,-0.1334,0.1016,-1.8654,-9.6144,-0.50369996,std
-0.0036651914,-0.012077678,0.00059341197,-0.0072999997,-0.1236,0.1218,-1.8657,-9.6143,-0.5043,std
-0.001134464,-0.010506882,0.00085521134,-0.066,-0.1335,0.1223,-1.8657999,-9.6142,-0.50479996,std
-0.0007330383,0.0013613568,-0.0021118484,-0.065799996,-0.1139,0.1325,-1.8659999,-9.6142,-0.5051,std
-0.00040142573,0.0033161256,-0.003926991,-0.0359,-0.114099994,0.113199994,-1.8664999,-9.613999,-0.5054,std
-0.0015707964,-0.0038571777,-0.00029670598,-0.025799999,-0.1239,0.1326,-1.8668,-9.613999,-0.5053,std
-0.001134464,-0.0060039326,-0.00013962634,-0.0749,-0.1533,0.113,-1.8666999,-9.613999,-0.50519997,std
-0.0013962634,-0.0023736479,-0.0033161256,-0.0945,-0.1435,0.113,-1.8666999,-9.613999,-0.5053,std
-0.004276057,-0.007173303,-0.0022863813,-0.035499997,-0.114099994,0.113,-1.8669,-9.613999,-0.5053,std
-0.004660029,-0.006928957,-0.004276057,0.0039999997,-0.1338,0.1127,-1.8671999,-9.6139,-0.5049,std
-0.0034208454,-0.01144936,-0.0011868239,-0.035499997,-0.1239,0.102699995,-1.8668,-9.613999,-0.50479996,std
0.002321288,-0.006981317,0.0026179939,-0.0657,-0.1139,0.0831,-1.8661,-9.6142,-0.50479996,std
0.0035604716,-0.00572468,0.0027925267,0.0028,-0.1532,0.1125,-1.8661,-9.6142,-0.50479996,std
0.003577925,-0.0011170107,0.0008726646,0.0127,-0.1335,0.122099996,-1.8661,-9.6142,-0.5045,std
0.0019896755,-0.0072431164,-0.0016580628,-0.0369,-0.1236,0.1319,-1.8655,-9.6143,-0.5045,std
-0.0035604716,-0.00424115,5.235988e-05,-0.0274,-0.1432,0.1616,-1.8651999,-9.6143,-0.5049,std
-0.0017278759,-0.0028448866,0.0010297443,-0.106599994,-0.1235,0.1522,-1.8644999,-9.6145,-0.5053,std
-0.0035604716,-0.0064228117,-0.0011170107,-0.0674,-0.1038,0.1326,-1.8643999,-9.6145,-0.5053,std
-0.003700098,-0.006789331,-0.004468043,-0.007999999,-0.13329999,0.1513,-1.865,-9.6144,-0.5044,std
-0.0015882496,-0.011658799,-0.0010821042,0.0219,-0.1628,0.16,-1.8656,-9.6143,-0.5033,std
-0.0010471975,-0.013456488,0.0009424778,-0.017099999,-0.1628,0.1002,-1.8657,-9.6144,-0.50229996,std
-0.0031764992,-0.0035430184,-0.0008901179,-0.0369,-0.13329999,0.0797,-1.8655,-9.6145,-0.5014,std
-0.0037175512,-0.0090408055,-0.0030543262,0.0121,-0.113699995,0.1095,-1.8656,-9.6144,-0.5017,std
-0.0048520155,-0.013596115,-0.0032114058,0.0611,-0.1431,0.1192,-1.8656,-9.6144,-0.50159997,std
-0.005358161,-0.008831366,0.00080285146,0.0218,-0.1529,0.0998,-1.8654,-9.6144,-0.50189996,std
-0.001256637,-0.0035255651,0.0012391837,-0.0475,-0.14289999,0.1196,-1.8647,-9.6146,-0.5021,std
0.0028099802,0.00040142573,0.001012291,-0.018199999,-0.1135,0.089899994,-1.8646,-9.6146,-0.5017,std
0.003630285,-0.0067195175,0.0042062434,0.0212,-0.12329999,0.099199995,-1.8649,-9.6146,-0.5013,std
0.0021118484,-0.00827286,0.0032637657,-0.0082,-0.14289999,0.109299995,-1.8648,-9.6146,-0.5015,std
-0.002094395,-0.0055676005,0.0015358897,-0.0479,-0.133,0.0898,-1.8642999,-9.614699,-0.5017,std
-0.0002443461,0.00017453292,3.4906585e-05,-0.0287,-0.113299996,0.119399995,-1.8637999,-9.6147995,-0.50189996,std
0.00027925268,-3.4906585e-05,0.00143117,0.0008,-0.1232,0.13949999,-1.8641,-9.614699,-0.5024,std
0.0011170107,0.0,0.0017976891,-0.0184,-0.1331,0.1393,-1.8643999,-9.6146,-0.5021,std
0.0028972465,0.0047647487,0.00085521134,-0.0378,-0.1331,0.109,-1.8646,-9.6146,-0.5013,std
0.0014137167,0.0025307273,0.0037350047,-0.0173,-0.14299999,0.098,-1.8655,-9.6145,-0.5001,std
0.004660029,0.0038571777,0.0049741883,-0.0067999996,-0.13329999,0.1069,-1.8662,-9.6144,-0.4992,std
0.003106686,0.009250245,0.004223697,-0.0162,-0.1432,0.0971,-1.8665999,-9.6144,-0.4992,std
0.0031939526,0.010943214,0.00090757123,-0.0455,-0.113699995,0.106599994,-1.8666999,-9.6144,-0.4989,std
0.005550147,0.007173303,0.00095993106,-0.015899999,-0.1334,0.1063,-1.8669,-9.6143,-0.4985,std
0.0025307273,0.0043458696,0.004712389,-0.0253,-0.1432,0.1156,-1.8672999,-9.6143,-0.498,std
0.0037175512,0.010332349,0.0045204028,-0.0448,-0.1236,0.1051,-1.8673999,-9.6143,-0.4974,std
0.007347836,0.006440265,0.003822271,-0.0245,-0.1237,0.13419999,-1.8680999,-9.6142,-0.49699998,std
0.0054628807,0.0033859387,0.004555309,-0.0039,-0.114099994,0.1038,-1.869,-9.613999,-0.49609998,std
0.004415683,0.0059166662,0.003281219,0.026099999,-0.1436,0.1131,-1.8698,-9.6139,-0.4956,std
0.0047647487,0.00572468,0.0046774824,-0.061899997,-0.124,0.0735,-1.8699,-9.6139,-0.49519998,std
0.005253441,0.0012217305,0.005602507,-0.0422,-0.1239,0.092099994,-1.87,-9.613999,-0.49409997,std
0.007993608,0.0015184365,0.0058817593,0.0174,-0.1339,0.121,-1.8708999,-9.6138,-0.49359998,std
0.0070162234,0.0015707964,0.003944444,0.0084,-0.134,0.1008,-1.8716999,-9.6137,-0.4931,std
0.0060562924,0.007941248,0.0034382986,-0.0104,-0.13409999,0.0994,-1.8722999,-9.6136,-0.4917,std
0.0051487214,0.004694936,0.005375614,-0.0095999995,-0.1538,0.0885,-1.8731999,-9.6135,-0.49049997,std
0.0069464105,0.006684611,0.0058643064,0.0007,-0.1245,0.097399995,-1.8737999,-9.6135,-0.4897,std
0.008744099,0.013962634,0.0046251225,-0.0278,-0.1344,0.0867,-1.8745999,-9.613299,-0.4888,std
0.009005899,0.015219271,0.0042935098,0.012399999,-0.1345,0.1149,-1.8757,-9.6132,-0.4876,std
0.0063704518,0.0131946895,0.0029321532,-0.0256,-0.1445,0.0936,-1.8768,-9.613,-0.48589998,std
0.009372418,0.018465584,0.0043982295,-0.024799999,-0.1445,0.1118,-1.8776,-9.613,-0.48439997,std
0.0060562924,0.010611602,0.005358161,-0.0537,-0.125,0.100899994,-1.8781999,-9.6129,-0.4833,std
0.004171337,0.007504916,0.005410521,-0.0232,-0.1251,0.1195,-1.8792,-9.6128,-0.48229998,std
0.0038920841,0.0,0.005899213,-0.0025,-0.1449,0.12799999,-1.8801999,-9.612599,-0.48099998,std
0.002635447,-0.0010995574,0.0037699111,-0.0018,-0.145,0.107,-1.8809999,-9.6125,-0.47959998,std
0.0057595866,0.0033859387,0.0042586033,-0.0403,-0.1156,0.115399994,-1.8816999,-9.6125,-0.47829998,std
0.0048171086,0.006876597,0.006440265,-0.0301,-0.1451,0.11449999,-1.8821,-9.6124,-0.4773,std
0.005183628,0.0069464105,0.0076619955,-0.0587,-0.1353,0.0836,-1.8829,-9.6124,-0.4759,std
0.0023038345,0.0069987704,0.005986479,-0.0187,-0.1355,0.1219,-1.8836999,-9.6122,-0.475,std
0.0029670596,0.0054803337,0.0038920841,-0.0177,-0.1356,0.1604,-1.8847,-9.6121,-0.47419998,std
0.0006806784,0.003822271,0.0027227136,-0.0067,-0.1162,0.17909999,-1.8858999,-9.611899,-0.47329998,std
-0.00012217305,-0.0010297443,0.0044854963,-0.0648,-0.1261,0.1293,-1.8865999,-9.6118,-0.4725,std
-0.00040142573,0.00055850536,0.0025307273,-0.1033,-0.13599999,0.1477,-1.8873999,-9.6117,-0.47129998,std
-0.00041887903,0.0026703537,0.0009424778,-0.053,-0.1166,0.137,-1.8886,-9.6115,-0.47039998,std
-0.00075049157,-0.0008726646,0.0036477381,0.0071,-0.1364,0.12629999,-1.89,-9.6112995,-0.46949998,std
0.0030717794,-0.00080285146,0.005305801,-0.0015,-0.1366,0.1161,-1.8910999,-9.6111,-0.4691,std
0.00075049157,-0.00010471976,0.0038048178,-0.020399999,-0.1564,0.0959,-1.8917999,-9.611,-0.4685,std
0.0021467549,0.0016755161,0.002443461,-0.0296,-0.127,0.076,-1.8923999,-9.6109,-0.46829998,std
-0.0005410521,0.00055850536,-0.0006806784,0.00049999997,-0.1468,0.1052,-1.8931999,-9.6107,-0.46809998,std
0.0014486233,0.0024260078,0.0010646508,-0.0284,-0.1175,0.1148,-1.8937,-9.6105995,-0.4678,std
0.0008726646,-0.00027925268,0.0021991148,-0.038,-0.1175,0.0853,-1.8938999,-9.6105995,-0.46769997,std
0.0026179939,-0.0012915436,0.0017976891,-0.0274,-0.117599994,0.0949,-1.8945999,-9.610499,-0.4675,std
0.001850049,-0.0048520155,0.0006806784,-0.0067999996,-0.1374,0.084199995,-1.8956,-9.6103,-0.4667,std
0.002391101,-0.002042035,-0.0002443461,-0.0061,-0.1277,0.083799995,-1.8963,-9.6102,-0.46629998,std
0.0040317103,-0.0031241393,0.0016755161,-0.0155,-0.1278,0.0832,-1.8966999,-9.6101,-0.4657,std
0.0022863813,-0.0040142573,0.002391101,-0.044999998,-0.1277,0.0733,-1.8966,-9.6102,-0.46559998,std
0.0026179939,-0.0015009831,0.00080285146,-0.0154,-0.1179,0.0924,-1.8967999,-9.6102,-0.4651,std
0.0021467549,0.0047647487,-0.00052359875,-0.0052,-0.118,0.111499995,-1.8972,-9.6101,-0.4646,std
0.0033684855,0.0023038345,0.0010821042,-0.014699999,-0.1278,0.0813,-1.8974999,-9.6101,-0.46379998,std
0.0028099802,0.0002443461,0.0011868239,0.005,-0.13759999,0.1002,-1.8977,-9.6101,-0.463,std
0.0041015237,-0.001012291,0.00041887903,-0.0537,-0.13759999,0.079799995,-1.8977,-9.6101,-0.4622,std
0.0013439035,0.0019024089,-0.00036651915,-0.023899999,-0.118,0.1081,-1.8980999,-9.6101,-0.46109998,std
0.0017104227,0.0027750735,-0.00036651915,-0.0233,-0.13769999,0.1072,-1.8987,-9.61,-0.4603,std
0.003979351,-0.00143117,0.0035953782,0.006,-0.13769999,0.086899996,-1.8987,-9.61,-0.45949998,std
0.0023736479,-0.00143117,0.0005061455,-0.0332,-0.1278,0.106,-1.8986,-9.6101,-0.45909998,std
0.0016406095,0.0010995574,-0.0006806784,0.0061,-0.13759999,0.1052,-1.8987999,-9.6101,-0.4583,std
0.0020594886,0.00083775807,0.0006283185,0.0063,-0.13759999,0.104399994,-1.8988999,-9.6101,-0.4574,std
0.0016580628,-0.0032463125,0.0016755161,-0.0131,-0.1278,0.0837,-1.8989999,-9.6101,-0.4563,std
0.0029670596,-0.0020769418,0.0015882496,-0.0328,-0.1375,0.12239999,-1.8989999,-9.6102,-0.4558,std
0.0031939526,0.0024085543,0.00059341197,-0.0231,-0.1179,0.1218,-1.8988999,-9.6102,-0.4552,std
0.0013613568,0.0004712389,0.0004712389,0.0265,-0.1278,0.0815,-1.8995999,-9.6101,-0.4542,std
0.00076794485,-0.002443461,0.0023387412,-0.0026999998,-0.13759999,0.0905,-1.8996999,-9.6101,-0.4534,std
0.00090757123,0.0011519173,0.0009948377,-0.0323,-0.1277,0.089999996,-1.8994999,-9.6102,-0.45279998,std
6.981317e-05,-0.0012915436,0.0009424778,-0.0321,-0.1375,0.108899996,-1.8996999,-9.6102,-0.4522,std
0.0014486233,0.00082030473,-0.00055850536,0.026999999,-0.1375,0.1083,-1.9,-9.6102,-0.4515,std
0.00057595863,6.981317e-05,0.00085521134,-0.0021,-0.13759999,0.0975,-1.9002999,-9.6102,-0.4506,std
0.0006981317,-0.003700098,0.0027052604,-0.051,-0.14739999,0.087,-1.9003999,-9.6102,-0.44979998,std
0.0015707964,0.0011519173,0.0022863813,-0.0411,-0.1277,0.076699995,-1.9004999,-9.6102,-0.44939998,std
0.0027401668,0.0016755161,0.0037175512,0.0278,-0.1278,0.1153,-1.9008,-9.6101,-0.44869998,std
0.0016580628,0.0013439035,0.0021816615,0.0278,-0.1278,0.105,-1.9009,-9.6101,-0.44829997,std
0.0021467549,-0.0010471975,0.0039095376,-0.0209,-0.13759999,0.085099995,-1.9010999,-9.6101,-0.44799998,std
-0.0008726646,0.00090757123,0.0007853982,-0.0211,-0.1277,0.094399996,-1.9009,-9.6102,-0.44739997,std
-0.00090757123,0.0017802358,-0.00041887903,-0.0209,-0.13759999,0.084199995,-1.9010999,-9.6102,-0.44709998,std
-0.0009250245,-0.0014835298,0.00026179937,-0.0008,-0.13759999,0.0936,-1.9016,-9.6101,-0.4466,std
8.726646e-05,0.00038397242,0.0012391837,-0.010199999,-0.13769999,0.083299994,-1.902,-9.61,-0.4461,std
0.00020943952,0.001850049,0.0023561944,0.01,-0.1378,0.1218,-1.9027,-9.6098995,-0.4454,std
0.0046251225,0.001850049,0.0053407075,-0.009099999,-0.1182,0.052699998,-1.9030999,-9.6098995,-0.445,std
0.0046774824,0.006161012,0.0062482785,0.0504,-0.17719999,0.0815,-1.9038999,-9.6097,-0.4443,std
0.0030892328,0.011222467,0.0016231562,-0.0278,-0.1282,0.0716,-1.9039999,-9.6097,-0.4443,std
0.0031415927,0.0073129297,0.0013439035,-0.0279,-0.1086,0.0814,-1.9038999,-9.6097,-0.4443,std
0.003874631,0.0014835298,0.0037175512,-0.018,-0.1184,0.110599995,-1.9039999,-9.6097,-0.44399998,std
0.0012042772,0.003926991,0.0046251225,-0.0374,-0.138,0.1396,-1.9042,-9.6097,-0.4436,std
0.001012291,0.0068940506,0.003630285,-0.046699997,-0.1283,0.1099,-1.9046999,-9.6096,-0.44329998,std
0.0022165682,-0.00019198621,0.0014137167,-0.0162,-0.118599996,0.0991,-1.9058,-9.6095,-0.4423,std
0.0009250245,-0.0030543262,0.0004886922,0.024,-0.1384,0.0982,-1.9068999,-9.6093,-0.4414,std
-0.0005061455,0.0016929694,0.0007853982,-0.0345,-0.13849999,0.068399996,-1.9071,-9.6092,-0.44099998,std
0.0006806784,0.0038048178,0.0057072267,-0.0047999998,-0.13849999,0.058,-1.9073999,-9.6092,-0.4405,std
0.0031241393,0.00075049157,0.0042935098,0.0154,-0.12879999,0.0669,-1.9081,-9.609099,-0.4396,std
0.0019373155,0.0006457718,0.00027925268,0.0163,-0.12889999,0.0765,-1.9088999,-9.609,-0.4393,std
0.0024260078,0.0004363323,0.0009424778,0.0267,-0.1389,0.0959,-1.9095999,-9.6088,-0.43919998,std
0.0025307273,-0.00017453292,0.0021642083,0.0072999997,-0.1291,0.0854,-1.9097999,-9.6088,-0.4384,std
0.0030543262,0.0028099802,0.0048694685,-0.0415,-0.1193,0.0946,-1.9099,-9.6088,-0.43789998,std
0.002513274,0.0010471975,0.0027576203,-0.0413,-0.1095,0.0651,-1.9101,-9.6088,-0.4378,std
0.0012042772,0.00143117,0.0007330383,0.0087,-0.1391,0.094399996,-1.9111999,-9.6086,-0.4376,std
0.0026179939,-0.0032463125,0.0013089969,0.0095999995,-0.1393,0.0936,-1.9121,-9.6085,-0.4368,std
-3.4906585e-05,0.0012740904,-0.00061086525,-0.0295,-0.1196,0.0734,-1.9121,-9.6085,-0.4362,std
0.00418879,-0.00059341197,-0.00033161257,-0.048899997,-0.1393,0.0923,-1.9123,-9.6085,-0.4355,std
0.0006806784,-0.0045727626,0.0014835298,-0.019,-0.1099,0.110999994,-1.9128,-9.608399,-0.4346,std
0.0012217305,0.0014137167,-0.0004363323,0.0111,-0.13939999,0.0907,-1.9136,-9.6083,-0.4339,std
0.00066322513,0.003926991,-0.0013962634,0.0116,-0.13949999,0.0802,-1.9140999,-9.6082,-0.4333,std
0.0011868239,0.0019024089,-0.00027925268,-0.0177,-0.1493,0.0603,-1.9142,-9.6082,-0.43289998,std
0.0026703537,0.0012217305,0.00082030473,0.0316,-0.12969999,0.0594,-1.9144,-9.6082,-0.4321,std
0.00010471976,0.0019373155,-0.0004363323,-0.0077,-0.13949999,0.088599995,-1.9143,-9.6082,-0.4319,std
0.0006981317,0.0028797933,0.00029670598,-0.0078,-0.1296,0.0778,-1.9142,-9.6083,-0.4308,std
0.0032637657,0.002565634,0.0012217305,0.0121,-0.12969999,0.067499995,-1.9145999,-9.6083,-0.4303,std
0.0012391837,0.003996804,0.0010646508,0.0021,-0.14919999,0.0769,-1.9144,-9.6083,-0.4299,std
0.0028448866,0.0063529983,0.0028099802,-0.0177,-0.1393,0.076699995,-1.9140999,-9.608399,-0.4297,std
0.0038920841,0.0070860367,0.0026005406,0.0016999999,-0.1197,0.076299995,-1.9139999,-9.608399,-0.42929998,std
0.004310963,0.004363323,0.0010646508,0.0311,-0.1295,0.0853,-1.9138999,-9.6085,-0.42859998,std
0.0030892328,0.003577925,0.0029496064,0.0112,-0.1392,0.1047,-1.9137,-9.6085,-0.4283,std
0.0023561944,0.0069987704,0.0037873646,-0.018099999,-0.1294,0.0946,-1.9137,-9.6085,-0.428,std
0.0035081117,0.011065387,0.0026005406,-0.0178,-0.1392,0.064399995,-1.9139999,-9.6085,-0.42729998,std
0.0058643064,0.007853982,0.0025481808,0.0117,-0.1196,0.0739,-1.9142,-9.6085,-0.427,std
0.0049043754,0.0067195175,0.0051138145,0.022,-0.1393,0.0734,-1.9145999,-9.608399,-0.4265,std
0.004223697,0.0042062434,0.004607669,-0.0265,-0.1296,0.053099997,-1.9151,-9.6083,-0.4258,std
0.0043807765,0.0019896755,0.0035953782,-0.0165,-0.13939999,0.071899995,-1.9152999,-9.6083,-0.4249,std
0.004276057,0.0014486233,0.0043982295,0.0133,-0.1296,0.081,-1.9158,-9.6083,-0.4242,std
0.0063529983,0.0028274334,0.002687807,0.0139999995,-0.1396,0.0806,-1.9165,-9.6082,-0.4238,std
0.004223697,0.0032114058,0.0033684855,-0.0050999997,-0.12,0.0605,-1.9168999,-9.6081,-0.42339998,std
0.0034732053,0.001553343,0.00082030473,0.024699999,-0.1397,0.069299996,-1.9174,-9.608,-0.42229998,std
0.0009948377,-0.0030194195,0.0030892328,-0.0037,-0.13,0.0488,-1.9182999,-9.6079,-0.42139998,std
0.0017453292,0.0017104227,0.0024609142,0.0265,-0.1399,0.0774,-1.9190999,-9.6078,-0.4206,std
0.00143117,0.003106686,0.0,0.037,-0.15969999,0.0764,-1.9197999,-9.607699,-0.41959998,std
1.7453292e-05,0.004607669,-0.0009250245,-0.0013,-0.14019999,0.036199998,-1.9207,-9.6075,-0.4186,std
-0.00020943952,-0.00710349,-0.00055850536,0.0089,-0.14019999,0.074099995,-1.9211999,-9.6075,-0.4173,std
0.0009773844,-0.012287118,0.0038920841,-0.01,-0.120699994,0.0634,-1.9217999,-9.6074,-0.4164,std
0.0061959187,-0.012601277,0.0065798913,0.019299999,-0.14029999,0.0626,-1.9217999,-9.6074,-0.4156,std
0.014433873,-0.0066147977,0.006562438,-0.0094,-0.13059999,0.071899995,-1.9224,-9.6073,-0.41509998,std
0.013386675,-0.007644542,0.007278023,0.020299999,-0.14039999,0.0714,-1.9228,-9.6073,-0.41459998,std
0.008848819,0.0016057029,0.0043458696,-0.0189,-0.13059999,0.0515,-1.9226999,-9.6073,-0.4143,std
0.0061784657,0.002443461,0.003752458,-0.0387,-0.14029999,0.0906,-1.9224999,-9.6074,-0.4143,std
0.006736971,0.00413643,0.0026703537,-0.058399998,-0.1109,0.099999994,-1.9224999,-9.6074,-0.4138,std
0.0076619955,-0.0021816615,0.0038920841,-0.027999999,-0.1012,0.1383,-1.9233999,-9.6072,-0.4129,std
0.0070685833,-0.006510078,0.004415683,-0.0268,-0.1112,0.1268,-1.9246999,-9.6071,-0.4112,std
0.009564404,-0.0057595866,0.003577925,-0.0548,-0.1408,0.074499995,-1.926,-9.6069,-0.40789998,std
0.011676253,-0.0071383966,0.003281219,-0.024,-0.1507,0.0616,-1.9275,-9.6068,-0.40489998,std
0.0085870195,-0.0065275314,0.005410521,0.0061999997,-0.141,0.0402,-1.9282999,-9.6067,-0.403,std
0.010594148,-0.0037175512,0.0035081117,0.0266,-0.1313,0.078,-1.9290999,-9.6066,-0.4016,std
0.009721484,-0.005131268,0.0036128315,0.017199999,-0.1314,0.057099998,-1.9295,-9.6066,-0.40039998,std
0.013473942,-0.0032463125,0.005794493,0.0376,-0.14119999,0.0358,-1.9303,-9.6065,-0.39859998,std
0.012845623,-0.0013439035,0.006981317,0.009099999,-0.1413,0.0634,-1.9311999,-9.6064,-0.39679998,std
0.015620696,-0.00038397242,0.0061959187,-0.029299999,-0.1414,0.0611,-1.9318999,-9.606299,-0.3945,std
0.014503686,0.0006457718,0.0065275314,-0.0188,-0.13159999,0.058399998,-1.9325999,-9.606299,-0.3918,std
0.011798426,0.0010646508,0.0066147977,-0.0079,-0.102299996,0.105299994,-1.9337,-9.6061,-0.3897,std
0.013264502,0.0031764992,0.0055676005,-0.0268,-0.121999994,0.083299994,-1.9344,-9.6061,-0.38729998,std
0.014940019,0.00033161257,0.0077667153,-0.065299995,-0.122099996,0.1105,-1.9352,-9.606,-0.385,std
0.0132121425,0.00083775807,0.0055850535,-0.0641,-0.1418,0.12719999,-1.9362999,-9.6059,-0.3821,std
0.011292281,0.004468043,0.0055152406,-0.053,-0.1125,0.1244,-1.9376999,-9.6058,-0.37939999,std
0.008517207,0.0076794485,0.005253441,-0.0223,-0.122499995,0.1114,-1.9389,-9.605599,-0.3762,std
0.008709193,0.0067020645,0.0035430184,-0.0309,-0.1422,0.0986,-1.9402,-9.6055,-0.3732,std
0.010611602,0.0050614546,0.003630285,-0.0296,-0.1228,0.106,-1.9413999,-9.6053,-0.3708,std
0.009599311,0.010489428,0.0033859387,-0.038399998,-0.122899994,0.0936,-1.9425,-9.6052,-0.3682,std
0.009128072,0.016667895,0.0010995574,-0.017099999,-0.1427,0.099999994,-1.9440999,-9.605,-0.36479998,std
0.009599311,0.017610373,0.0027576203,-0.025899999,-0.1428,0.087799996,-1.9451,-9.604899,-0.3624,std
0.008464847,0.011152654,0.003979351,0.0044,-0.14289999,0.0954,-1.9461,-9.6048,-0.3602,std
0.008883726,0.0076794485,0.0038571777,-0.0338,-0.1431,0.0742,-1.9470999,-9.6047,-0.3586,std
0.0077318083,0.007976155,0.003944444,-0.0233,-0.13329999,0.0726,-1.9476999,-9.6046,-0.357,std
0.0061784657,0.005410521,0.0014660766,-0.0422,-0.1236,0.0802,-1.9484999,-9.6045,-0.3548,std
0.003874631,0.0051138145,0.0011519173,-0.0023999999,-0.153,0.0787,-1.949,-9.6045,-0.3533,std
0.00853466,-0.00038397242,0.003577925,0.017199999,-0.1334,0.1166,-1.9490999,-9.6045,-0.352,std
0.0042062434,0.0035953782,0.0021467549,-0.0018999999,-0.1531,0.076,-1.9495,-9.6045,-0.3506,std
0.0059166662,0.008045968,0.0010995574,-0.0011999999,-0.1433,0.0844,-1.9502,-9.6044,-0.34919998,std
0.007853982,0.0016755161,0.0038920841,0.019,-0.1336,0.0828,-1.9509,-9.6043,-0.34759998,std
0.004590216,0.001134464,0.004939282,-0.019399999,-0.1337,0.0716,-1.9516,-9.604199,-0.3462,std
0.0049043754,0.0076619955,0.0021642083,0.02,-0.1435,0.0999,-1.9519,-9.604199,-0.345,std
0.005253441,0.0070860367,0.00080285146,-0.038599998,-0.1337,0.069699995,-1.9520999,-9.604199,-0.3443,std
0.0065973448,0.002268928,0.0025830872,0.011,-0.1338,0.0482,-1.9527999,-9.6041,-0.34239998,std
0.004834562,0.0017278759,0.0056723203,0.0016,-0.1437,0.0964,-1.9531,-9.604,-0.3416,std
0.0070860367,0.0026529005,0.0016929694,-0.037299998,-0.1437,0.0954,-1.9533,-9.6041,-0.3405,std
0.009162978,-0.00052359875,0.00408407,-0.0072,-0.1241,0.074099995,-1.954,-9.604,-0.3389,std
0.009773844,-0.0017976891,0.004363323,0.0231,-0.13409999,0.082899995,-1.9549999,-9.6038,-0.33789998,std
0.008691739,0.0015358897,0.0043807765,-0.0157,-0.144,0.081999995,-1.9554,-9.6038,-0.33699998,std
0.00827286,0.0013613568,0.0029670596,-0.0156,-0.124299996,0.0712,-1.9555,-9.6038,-0.336,std
0.008063421,0.0013264503,0.004363323,0.0142,-0.1244,0.0602,-1.9559,-9.6037,-0.3347,std
0.0073303827,-0.00143117,0.0038920841,0.0055,-0.1442,0.0885,-1.9569999,-9.603499,-0.3337,std
0.009843657,-0.0012217305,0.003822271,-0.0235,-0.1148,0.0674,-1.9573,-9.603499,-0.3322,std
0.010332349,0.0016406095,0.0030019663,-0.022699999,-0.1443,0.0557,-1.9581,-9.6034,-0.3302,std
0.01160644,0.003752458,0.005253441,-0.0023,-0.1052,0.082899995,-1.959,-9.6033,-0.3281,std
0.011763519,0.0076794485,0.004782202,-0.0112,-0.1445,0.0713,-1.9598,-9.6032,-0.3263,std
0.010995574,0.012426744,0.0044331364,-0.0401,-0.1445,0.0696,-1.9604,-9.6032,-0.32459998,std
0.011065387,0.008848819,0.0035430184,-0.0393,-0.125,0.107099995,-1.9612,-9.6031,-0.3229,std
0.009599311,0.0037873646,0.0035430184,0.00059999997,-0.1153,0.1251,-1.9619999,-9.603,-0.32119998,std
0.010384709,0.0030717794,0.0030717794,-0.047599997,-0.1252,0.093499996,-1.9627,-9.6029,-0.3191,std
0.0085870195,0.005899213,0.0012217305,-0.0078,-0.115499996,0.0914,-1.9633,-9.602799,-0.31689999,std
0.008028515,0.008744099,0.003403392,-0.0264,-0.145,0.059699997,-1.9642999,-9.6027,-0.31469998,std
0.010297443,0.008342674,0.0042062434,0.0037999998,-0.1353,0.0771,-1.9650999,-9.6026,-0.3125,std
0.009651671,0.007347836,0.0035953782,0.033999998,-0.1354,0.0459,-1.9659,-9.6025,-0.3107,std
0.009354965,0.0051487214,0.0004363323,0.015,-0.1355,0.0635,-1.9664999,-9.6024,-0.3087,std
0.009162978,0.0022340214,0.0023561944,0.0255,-0.1454,0.071499996,-1.9671999,-9.6024,-0.30679998,std
0.0094945915,0.007958702,0.0044331364,0.0064,-0.1454,0.0596,-1.9677999,-9.6023,-0.3048,std
0.007993608,0.010978121,0.0045727626,-0.0128999995,-0.1356,0.0482,-1.9679999,-9.6023,-0.3031,std
0.01150172,0.012531464,0.0034906585,-0.0319,-0.1161,0.0762,-1.9685999,-9.6022,-0.3017,std
0.012199852,0.010105456,0.004363323,0.0276,-0.1554,0.1038,-1.9692999,-9.602099,-0.2999,std
0.011571533,0.010559242,0.0047647487,-0.0207,-0.126,0.092199996,-1.9699999,-9.602099,-0.2981,std
0.009145525,0.014625859,0.0038920841,-0.030399999,-0.126,0.0708,-1.9699999,-9.602099,-0.2963,std
0.006562438,0.009250245,0.005131268,-0.049599998,-0.14559999,0.118,-1.9705,-9.602099,-0.2945,std
0.008307767,0.007033677,0.0052010813,-0.0488,-0.13589999,0.1064,-1.9713,-9.601999,-0.29279998,std
0.009669124,0.007574729,0.0049741883,-0.0284,-0.1361,0.1346,-1.9720999,-9.6018,-0.2915,std
0.009808751,0.0076096356,0.008098328,-0.047399998,-0.1165,0.113,-1.9727,-9.6018,-0.28959998,std
0.0069464105,0.009128072,0.007173303,0.0023,-0.1264,0.0717,-1.9734999,-9.6017,-0.2874,std
0.008499754,0.011571533,0.005323254,0.012999999,-0.1462,0.0795,-1.9742999,-9.6016,-0.2854,std
0.0072431164,0.007888888,0.0075398223,-0.0157,-0.1364,0.0683,-1.9749999,-9.6015,-0.28399998,std
0.009354965,0.0061959187,0.0061784657,-0.0047999998,-0.1268,0.0867,-1.976,-9.601299,-0.2829,std
0.007888888,0.0077667153,0.0039095376,-0.0039999997,-0.13679999,0.1442,-1.9769,-9.6011,-0.28149998,std
0.007958702,0.0070511303,0.004782202,-0.0521,-0.1369,0.0738,-1.9777999,-9.601,-0.27969998,std
0.0051661744,0.0059515727,0.0048694685,-0.0016,-0.1273,0.101399995,-1.9792999,-9.600699,-0.27789998,std
0.0049218284,0.0056374134,0.0035953782,-0.039499998,-0.15699999,0.0806,-1.9806,-9.6005,-0.2768,std
0.0044854963,0.003630285,0.0019547688,-0.0189,-0.1179,0.089099996,-1.9815999,-9.6004,-0.27539998,std
0.0059166662,0.0008726646,0.0040142573,-0.0077,-0.1182,0.087799996,-1.9829999,-9.6001,-0.2741,std
0.0043458696,0.00418879,0.0045029493,-0.0359,-0.138,0.0959,-1.9841,-9.599899,-0.2724,std
0.0061959187,0.0027750735,0.0029321532,-0.0352,-0.1381,0.0945,-1.9848,-9.5998,-0.271,std
0.0026005406,0.002391101,0.0014660766,-0.0049,-0.1382,0.0832,-1.9856999,-9.5997,-0.2695,std
0.006126106,-0.004276057,0.0018849556,0.0155,-0.1188,0.092099994,-1.9865999,-9.5995,-0.2686,std
0.005131268,-0.0032637657,0.0046774824,-0.0426,-0.11889999,0.0814,-1.9872999,-9.5994,-0.2677,std
0.005078908,-0.0015009831,0.0027052604,-0.0423,-0.12879999,0.070599996,-1.9876,-9.599299,-0.2668,std
0.008447394,0.0010821042,0.0009948377,-0.0219,-0.109299995,0.088999994,-1.9884,-9.599199,-0.26549998,std
0.004537856,-1.7453292e-05,0.0013788101,-0.021,-0.1388,0.0685,-1.9892,-9.5991,-0.26459998,std
0.007347836,-0.00085521134,0.0027401668,-0.0106999995,-0.1291,0.077,-1.9898,-9.599,-0.2633,std
0.006161012,0.0010646508,0.002565634,-0.0398,-0.139,0.066599995,-1.9900999,-9.5989,-0.2628,std
0.0039618975,0.0019024089,0.000715585,-0.0394,-0.1292,0.0651,-1.9904,-9.5989,-0.26119998,std
0.00837758,-0.001012291,0.0022165682,0.00059999997,-0.1293,0.083399996,-1.9914,-9.5988,-0.2599,std
0.006265732,-0.0026703537,0.0023736479,-0.038,-0.1294,0.0822,-1.9919,-9.5987,-0.25869998,std
0.008115781,-0.0007853982,-0.0005061455,-0.0378,-0.1196,0.051,-1.9921,-9.5987,-0.25689998,std
0.006806784,-0.0035430184,0.0017104227,-0.037499998,-0.1392,0.0695,-1.9922999,-9.5987,-0.2559,std
0.0048520155,-0.008115781,0.0028099802,-0.0468,-0.1393,0.0679,-1.9928999,-9.598599,-0.25419998,std
0.008203047,-0.0044854963,0.0023038345,-0.0267,-0.119799994,0.0862,-1.9933,-9.598499,-0.2529,std
0.008866273,-0.0016755161,0.00083775807,-0.0266,-0.119799994,0.0853,-1.9935,-9.598499,-0.252,std
0.0049741883,-0.0017802358,-0.0004712389,0.0128999995,-0.13939999,0.0639,-1.9939,-9.598499,-0.2502,std
0.005323254,-0.0015882496,0.0010821042,-0.015899999,-0.12969999,0.1114,-1.9943999,-9.5984,-0.2487,std
0.008709193,0.0049741883,0.0027401668,-0.0552,-0.119799994,0.0802,-1.9943,-9.598499,-0.24689999,std
0.007696902,0.007173303,0.0054803337,-0.0451,-0.13939999,0.0589,-1.9945999,-9.598499,-0.2453,std
0.009232792,0.0072431164,0.003036873,-0.0150999995,-0.119899996,0.116299994,-1.9951999,-9.5984,-0.2438,std
0.008447394,0.003874631,0.0021816615,-0.0244,-0.12979999,0.094799995,-1.9956,-9.5983,-0.2419,std
0.0069115036,0.0017976891,0.0020071287,-0.0341,-0.12969999,0.112399995,-1.9957999,-9.5984,-0.2399,std
0.005375614,-0.00090757123,0.0051487214,-0.063599996,-0.13949999,0.072,-1.9957,-9.5984,-0.23869999,std
0.007173303,-0.00090757123,0.0021642083,-0.0438,-0.119899996,0.0903,-1.9958999,-9.5984,-0.2374,std
0.0054803337,-0.00055850536,0.00055850536,-0.0138,-0.12,0.0788,-1.9964,-9.5983,-0.2358,std
0.007504916,-0.0028274334,0.001850049,0.036199998,-0.13,0.1068,-1.9975,-9.5981,-0.23429999,std
0.007033677,0.00027925268,0.0031415927,0.0072999997,-0.13,0.066,-1.9979999,-9.5981,-0.23269999,std
0.009215338,0.0069464105,0.002042035,-0.0019999999,-0.1497,0.0545,-1.9984,-9.598,-0.2311,std
0.009843657,0.00827286,0.002687807,-0.0016,-0.120299995,0.053099997,-1.9987999,-9.598,-0.2296,std
0.008744099,0.011239921,0.0030543262,0.0189,-0.1401,0.0813,-1.9998,-9.597799,-0.22839999,std
0.008813913,0.012636184,0.0031939526,-0.0199,-0.1401,0.0699,-2.0002,-9.597799,-0.2268,std
0.010210176,0.023945916,-0.00090757123,-0.0492,-0.1303,0.1078,-2.0003,-9.597799,-0.22549999,std
0.00991347,0.022200588,-0.0006981317,-0.039,-0.1206,0.076699995,-2.0007,-9.5977,-0.22379999,std
0.007976155,0.025534166,0.001972222,-0.058,-0.120699994,0.0849,-2.0012999,-9.5976,-0.22219999,std
0.010402163,0.025359634,0.005026548,-0.008599999,-0.120699994,0.083299994,-2.0016,-9.5976,-0.2206,std
0.009250245,0.02713987,0.007033677,0.0015,-0.14039999,0.0815,-2.0021,-9.5975,-0.2188,std
0.011047934,0.019704767,0.0082205,-0.0174,-0.14039999,0.0801,-2.0026,-9.5975,-0.2174,std
0.010698868,0.013055063,0.008237954,-0.0267,-0.1405,0.1278,-2.0032,-9.5974,-0.21599999,std
0.009093165,0.0155334305,0.0047298423,-0.066199996,-0.14039999,0.0775,-2.0029,-9.5975,-0.2148,std
0.0072954763,0.008866273,0.00424115,-0.0762,-0.120699994,0.105799995,-2.0026999,-9.5975,-0.2136,std
0.0026179939,0.0027227136,0.0063006384,-0.026899999,-0.120799996,0.1148,-2.003,-9.5975,-0.2129,std
0.0033684855,0.0035255651,0.007504916,0.012999999,-0.111099996,0.113699995,-2.0038,-9.5974,-0.2118,std
0.0061959187,0.009250245,0.007173303,-0.0150999995,-0.1016,0.103,-2.0049999,-9.597099,-0.2109,std
0.0076794485,0.008796459,0.009110618,0.0255,-0.1313,0.091699995,-2.0065,-9.5968,-0.2094,std
0.009948377,0.011222467,0.008080875,0.0075,-0.1512,0.0704,-2.008,-9.5966,-0.2077,std
0.012234758,0.017680185,0.009215338,-0.0504,-0.1219,0.088599995,-2.0089,-9.596399,-0.20629999,std
0.01160644,0.019320795,0.009337512,-0.039899997,-0.1416,0.107099995,-2.0096,-9.5963,-0.2051,std
0.013665928,0.009581857,0.012112585,-0.0387,-0.1419,0.1065,-2.0108,-9.596,-0.20459999,std
0.01420698,0.0104370685,0.010786135,-0.0569,-0.14209999,0.12539999,-2.0121999,-9.595799,-0.2039,std
0.01314233,0.011885692,0.008691739,-0.0751,-0.093399994,0.075399995,-2.0135999,-9.5955,-0.20289999,std
0.012409291,0.013770647,0.0066497047,-0.034199998,-0.1231,0.0937,-2.0153,-9.5952,-0.2016,std
0.008115781,0.009459685,0.006632251,-0.0523,-0.123399995,0.092,-2.0168,-9.5949,-0.1999,std
0.008237954,0.009930924,0.00715585,-0.060399998,-0.1139,0.070599996,-2.0184999,-9.5946,-0.1981,std
0.010681415,0.009808751,0.0095120445,-0.029299999,-0.1339,0.069,-2.0202,-9.5942,-0.19649999,std
0.013805554,0.007644542,0.012007865,-0.0074,-0.1245,0.0764,-2.0225,-9.5938,-0.19399999,std
0.017505653,0.00853466,0.011222467,0.0042999997,-0.1347,0.0837,-2.0245,-9.5934,-0.1915,std
0.018378317,0.010105456,0.008656833,-0.0037,-0.14479999,0.0618,-2.0261,-9.5931,-0.1893,std
0.017243853,0.007347836,0.0082205,-0.0418,-0.1352,0.030399999,-2.0274,-9.592899,-0.1873,std
0.012164945,0.008761553,0.0071383966,-0.0111,-0.1158,0.048699997,-2.0286,-9.5927,-0.18599999,std
0.013910274,0.0084823,0.006318092,-0.0196,-0.1259,0.0669,-2.0298998,-9.5924,-0.1846,std
0.011938052,0.0064751715,0.007749262,-0.0078,-0.106599994,0.0747,-2.0319,-9.592,-0.18259999,std
0.014067354,0.008953539,0.008447394,0.0138,-0.1364,0.0626,-2.0339,-9.5917,-0.1803,std
0.018099064,0.005550147,0.010245083,-0.0036,-0.1466,0.0594,-2.036,-9.5913,-0.1771,std
0.016353736,0.0051138145,0.012583824,-0.0019999999,-0.1371,0.046299998,-2.0377,-9.591,-0.17379999,std
0.017627826,0.0014835298,0.011257374,-0.00049999997,-0.1472,0.033299997,-2.0392,-9.5907,-0.1706,std
0.014625859,0.00090757123,0.010192723,-0.0089,-0.1278,0.0802,-2.0405,-9.5905,-0.16849999,std
0.0073652896,0.0049043754,0.0035604716,0.0018999999,-0.1182,0.0777,-2.0417,-9.5903,-0.166,std
0.0017104227,0.006161012,0.0012042772,-0.0063,-0.1283,0.104899995,-2.0432,-9.59,-0.1638,std
-0.0026529005,0.013439035,-0.0017278759,-0.0047,-0.1188,0.092599995,-2.0448,-9.5897,-0.1612,std
-0.0066497047,0.019861847,-0.0055850535,0.0069,-0.1192,0.0892,-2.0467,-9.5893,-0.15779999,std
-0.010751228,0.030159289,-0.011780973,-0.02,-0.1196,0.0468,-2.0491,-9.5889,-0.1547,std
-0.019285887,0.046373397,-0.023963371,0.0016999999,-0.1592,0.0532,-2.0512,-9.5885,-0.1512,std
-0.021938788,0.051923543,-0.038868483,-0.0061,-0.1498,0.06,-2.0532,-9.5880995,-0.14829999,std
-0.02146755,0.03536037,-0.024678955,-0.0251,-0.1401,0.039,-2.0539,-9.587999,-0.1469,std
-0.022567106,-0.00076794485,-0.008412487,-0.024899999,-0.14999999,0.078,-2.0541,-9.5879,-0.1466,std
-0.005497787,0.0040142573,-0.0069115036,0.0139,-0.1205,0.078999996,-2.0535998,-9.587999,-0.1476,std
0.00066322513,0.008080875,-0.0012915436,0.0717,-0.1105,0.1003,-2.0526,-9.5882,-0.1493,std
0.0012217305,-0.0004363323,-0.0004712389,0.1085,-0.1296,0.054399997,-2.0503,-9.588699,-0.1525,std
0.005375614,0.005794493,-0.00057595863,0.0253,-0.1679,0.0009999999,-2.0455,-9.5896,-0.15789999,std
0.0065798913,0.007836528,0.003630285,-0.2175,-0.12719999,0.036599997,-2.0379,-9.5911,-0.16399999,std
0.0033859387,0.002984513,0.007644542,-0.11449999,-0.106599994,0.1008,-2.033,-9.592,-0.16939999,std
0.008080875,0.002042035,0.006562438,-0.018099999,-0.086799994,0.17359999,-2.0314,-9.592299,-0.17359999,std
0.010227629,0.0043284167,0.0029321532,-0.0685,-0.0669,0.17459999,-2.0300999,-9.5926,-0.17459999,std
0.006126106,-0.002443461,0.00710349,-0.0786,-0.1453,0.1256,-2.0298,-9.5926,-0.17459999,std
0.0037350047,-0.0034732053,0.0068416907,-0.0981,-0.16489999,0.0859,-2.0298,-9.5926,-0.1742,std
0.0006806784,0.0044505894,0.0035081117,-0.14729999,-0.1256,0.085,-2.0297,-9.5927,-0.1732,std
-0.0017802358,0.008115781,-0.0015707964,-0.078,-0.0963,0.074099995,-2.0303,-9.5926,-0.1721,std
-0.009128072,0.008045968,-0.006021386,0.0018,-0.096599996,0.14199999,-2.0318,-9.592299,-0.1714,std
-0.017592918,0.0020769418,-0.011641346,-0.0066,-0.116399996,0.110999994,-2.033,-9.592,-0.1698,std
-0.03668682,0.0019024089,-0.022130774,-0.015899999,-0.1361,0.0502,-2.0335999,-9.592,-0.1678,std
-0.05588544,0.011658799,-0.032306045,0.005,-0.1462,0.029099999,-2.0349,-9.5917,-0.1664,std
-0.079395026,0.029077185,-0.04012512,0.0455,-0.1269,0.0673,-2.0363,-9.5914,-0.1654,std
-0.09349729,0.02417281,-0.03286455,0.036399998,-0.127,0.0672,-2.0369,-9.5913,-0.1653,std
-0.09269444,-0.0074700094,-0.0155508835,0.0262,-0.1171,0.0481,-2.0365999,-9.5914,-0.16579999,std
-0.079395026,-0.033440508,-0.0027401668,0.0348,-0.1267,0.030399999,-2.0354,-9.591599,-0.1677,std
-0.057334065,-0.020612339,-0.000715585,0.1012,-0.106699996,0.0337,-2.0331,-9.592,-0.17099999,std
-0.034313172,0.0008901179,-0.0012740904,0.1362,-0.1059,0.0897,-2.0289,-9.5928,-0.1779,std
-0.009477138,0.0030717794,0.0017976891,0.1103,-0.1244,0.1105,-2.0226,-9.5939,-0.189,std
-0.0030892328,-0.0013089969,0.0045029493,-0.0543,-0.16229999,0.0581,-2.0147998,-9.5952,-0.2052,std
-0.00572468,-0.0031241393,0.0072431164,-0.2373,-0.16139999,-0.011299999,-2.0084,-9.5961,-0.22399999,std
-0.0030892328,-0.0015707964,0.004834562,-0.1716,-0.121999994,0.0256,-2.0054,-9.5963,-0.24129999,std
0.0,0.0036128315,0.0038048178,-0.0739,-0.1026,0.078499995,-2.0049999,-9.596,-0.255,std
0.0028972465,0.0063006384,0.0038397242,-0.024899999,-0.1029,0.1278,-2.0049999,-9.595799,-0.2651,std
0.0044331364,0.0020769418,0.0043807765,-0.0742,-0.1423,0.19309999,-2.0047,-9.5956,-0.2715,std
0.004118977,-0.0040142573,0.004468043,-0.122899994,-0.1326,0.13599999,-2.0051,-9.5955,-0.2733,std
0.0063355453,-0.008237954,0.0031764992,-0.0632,-0.122899994,0.0383,-2.0059,-9.5953,-0.2737,std
0.007749262,-0.010978121,0.0015707964,-0.051999997,-0.1331,0.0,-2.0073,-9.594999,-0.27449998,std
0.011728613,-0.010559242,0.0022165682,-0.0314,-0.1235,0.0199,-2.0082,-9.5948,-0.2749,std
0.013351769,-0.012356931,0.006161012,0.018199999,-0.1432,0.0591,-2.0089,-9.5947,-0.2749,std
0.013997541,-0.011955505,0.006510078,0.0287,-0.1237,0.0587,-2.0096,-9.5945,-0.2744,std
0.013805554,-0.007993608,0.008552114,0.0295,-0.1435,0.0578,-2.0105,-9.594399,-0.2735,std
0.01595231,-0.00083775807,0.007941248,0.030399999,-0.1437,0.0665,-2.0112998,-9.5942,-0.2724,std
0.016301375,0.0033335788,0.008360127,-0.0081,-0.1339,0.055,-2.0119998,-9.5942,-0.2707,std
0.019024089,0.00022689281,0.00996583,-0.0274,-0.1143,0.0725,-2.0123,-9.5941,-0.2686,std
0.020961404,-0.0022514747,0.010192723,-0.0367,-0.1144,0.0893,-2.0128,-9.5941,-0.2658,std
0.020559978,-0.003577925,0.010367256,-0.0453,-0.124299996,0.10569999,-2.014,-9.594,-0.2626,std
0.020717058,-0.0051487214,0.009424778,-0.034199998,-0.1245,0.0925,-2.0153,-9.5938,-0.2593,std
0.021502456,-0.0049043754,0.009477138,-0.0423,-0.1248,0.0894,-2.017,-9.5935,-0.2561,std
0.02104867,-0.0054454273,0.008936086,-0.0212,-0.1152,0.0862,-2.0184999,-9.5933,-0.2529,std
0.019966567,-0.005497787,0.00827286,-0.0196,-0.12529999,0.0634,-2.0200999,-9.592999,-0.2497,std
0.016615534,-0.003874631,0.006387905,-0.0079,-0.1354,0.0694,-2.0219998,-9.5927,-0.24589999,std
0.017575465,-0.0014835298,0.00827286,-0.0058999998,-0.1161,0.0554,-2.0239,-9.5924,-0.2417,std
0.022689281,0.001134464,0.010524335,-0.0138,-0.116399996,0.0609,-2.0259,-9.5921,-0.2374,std
0.025080381,0.0059166662,0.013316862,-0.011899999,-0.1265,0.0762,-2.0277,-9.5918,-0.2331,std
0.023474678,0.0059515727,0.014538593,-0.0297,-0.15619999,0.0717,-2.0296,-9.591499,-0.2286,std
0.024469515,0.0073652896,0.014817845,-0.047599997,-0.127,0.0771,-2.0312998,-9.5913,-0.2242,std
0.025481807,0.008290314,0.0141546205,-0.046,-0.1371,0.1219,-2.0328999,-9.591,-0.22,std
0.02380629,0.0036826448,0.013927727,-0.084,-0.1078,0.1283,-2.0341,-9.590899,-0.2165,std
0.020996312,-0.0012391837,0.0108908545,-0.092199996,-0.1277,0.1149,-2.0356998,-9.5906,-0.2129,std
0.021659536,-0.0050440016,0.010035643,-0.0902,-0.108399995,0.1104,-2.0377,-9.5903,-0.2085,std
0.017976891,-0.006492625,0.009738937,-0.038399998,-0.108899996,0.1052,-2.0405,-9.5898,-0.2033,std
0.018430676,-0.009773844,0.009704031,-0.0064999997,-0.109299995,0.1012,-2.043,-9.589399,-0.19929999,std
0.019128809,-0.01150172,0.00996583,0.006,-0.14899999,0.0771,-2.0458,-9.5889,-0.19479999,std
0.018675024,-0.010157816,0.011222467,0.008599999,-0.1397,0.0626,-2.0484,-9.5884,-0.1901,std
0.020490166,-0.008883726,0.011397,0.011299999,-0.14999999,0.0874,-2.0511,-9.5879,-0.1855,std
0.01998402,-0.008150687,0.012967796,0.0134,-0.1406,0.0734,-2.0530999,-9.5875,-0.1812,std
0.019250982,-0.007592182,0.013351769,-0.0042,-0.1409,0.0689,-2.0551,-9.5872,-0.1767,std
0.017854718,-0.00837758,0.011571533,-0.031799998,-0.14119999,0.094399996,-2.057,-9.5869,-0.17289999,std
0.01595231,-0.009285152,0.009389872,-0.0495,-0.1317,0.0903,-2.0588,-9.5865,-0.1688,std
0.011641346,-0.006213372,0.0067195175,-0.0574,-0.1125,0.085999995,-2.0607998,-9.5862,-0.1645,std
0.010245083,-0.0048520155,0.008831366,-0.045399997,-0.1325,0.0819,-2.0629,-9.5858,-0.1603,std
0.013857914,-0.006091199,0.009407325,-0.0824,-0.1231,0.096999995,-2.0651,-9.5854,-0.1559,std
0.016231561,-0.011484266,0.012182398,-0.0603,-0.1432,0.11229999,-2.0676,-9.5849,-0.1515,std
0.017994344,-0.0146084055,0.011938052,-0.0479,-0.15349999,0.0984,-2.0702,-9.584499,-0.14739999,std
0.016231561,-0.012531464,0.01144936,-0.0457,-0.1441,0.0748,-2.0723999,-9.584,-0.1435,std
