rotationRate.x,rotationRate.y,rotationRate.z,userAcceleration.x,userAcceleration.y,userAcceleration.z,gravity.x,gravity.y,gravity.z,class
0.79669046,0.11828096,0.47804567,1.5081999,0.2688,-0.8828,-1.4101,-9.6635,0.8926,jog
0.78731805,0.28049186,0.5054299,1.1975,0.1793,-0.5986,-1.4132999,-9.6525,1.0007,jog
0.66657615,0.3968006,0.45130724,0.98709995,0.36049998,-0.0568,-1.4283999,-9.6376,1.1158999,jog
0.44315654,0.34894368,0.3842168,0.40649998,0.17289999,0.71819997,-1.4557999,-9.6167,1.2528,jog
0.24574235,0.36203364,0.33430037,-0.6513,-0.2758,0.675,-1.4962,-9.5896,1.4038999,jog
0.093060955,0.20523326,0.29937634,-1.1128,-0.96169996,0.35999998,-1.5839,-9.5508995,1.5619999,jog
-0.14594443,-0.15023795,0.35367352,-0.6658,-1.9152999,-0.0827,-1.6779,-9.5093,1.7105999,jog
-0.44439572,-0.40966368,0.4384267,0.7147,-2.5857,-0.6196,-1.7737999,-9.466599,1.8455,jog
-0.91299915,-0.45472807,0.42874014,1.865,-2.9991999,-1.569,-1.865,-9.4257,1.9612999,jog
-1.7436013,-0.5902878,0.4153709,2.4095,-3.6578,-2.7918,-1.9388,-9.3948,2.0367,jog
-2.8369803,-0.40268236,0.46764353,2.5005,-4.1155,-3.2098,-1.9906,-9.3783,2.0623999,jog
-3.4206185,0.22757348,0.33278194,2.4013999,-3.9427,-3.8562999,-2.0288,-9.374599,2.0421,jog
-3.5837543,0.71151835,-0.0014137167,2.0511,-3.0834,-4.3935,-2.0511,-9.3807,1.9908999,jog
-2.8646963,-0.045605455,-0.60889304,2.067,-1.7931,-5.0867,-2.067,-9.3962,1.8995999,jog
-2.4904976,-1.0411762,-1.3868387,2.3622,-0.5622,-6.8283997,-2.0876,-9.420899,1.7486,jog
-3.0918508,-1.2946503,-1.3550038,2.2431,1.2531999,-9.765699,-2.1058,-9.4614,1.4889,jog
-3.56199,-1.7184337,-0.9194918,2.088,4.1142,-6.9221997,-2.1272,-9.5177,1.0284,jog
-3.3549242,-1.6666672,-0.49991465,3.3456,5.8322,-2.935,-2.1492,-9.5588,0.4245,jog
-3.3586068,-1.1868414,-0.33810517,5.5141,-0.77529997,-2.9865,-2.1504,-9.5609,-0.3673,jog
-3.5853076,-0.81325364,-1.0986325,9.477799,-6.6769,0.2601,-2.064,-9.5138,-1.1819,jog
-3.0814137,-1.3513037,-1.5246499,7.8697,-7.1148,1.8551999,-1.8582,-9.4485,-1.8551999,jog
-2.7222948,-2.499678,-1.623226,3.2117,-5.7114,1.2056999,-1.5641999,-9.390699,-2.353,jog
-2.5926867,-3.5029283,-1.3669943,0.118499994,-8.5083,-0.14459999,-1.3148999,-9.2612,-2.9443998,jog
-1.9183263,-4.0580997,-1.3782167,-4.7862997,-11.3685,2.3818,-1.2152,-9.0685,-3.5291998,jog
-0.9704031,-3.7999659,-1.379962,-6.273,-10.8737,1.1723,-1.2191,-8.8179,-4.1143,jog
0.05576327,-2.5936813,-1.250703,-4.4291997,-9.7338,2.6345,-1.2389,-8.5261,-4.6840997,jog
1.3628927,-1.1894244,-1.166578,-1.1027,-10.841599,1.9484999,-1.1135,-8.193,-5.273,jog
2.6535113,-0.10346312,-0.8688947,1.9652,-8.7551,2.5066,-0.99429995,-7.8866997,-5.7427998,jog
3.4996643,1.271769,-0.4719545,0.5803,-5.7563,4.5797,-1.0216,-7.5709,-6.1486998,jog
3.406045,1.6117941,-0.12829915,-0.6701,-1.9144,9.028,-1.2126,-7.3135996,-6.4195,jog
2.7031484,1.0251889,0.23602088,-2.3509,2.8867,10.381499,-1.5227,-7.1134,-6.5765,jog
1.4905112,0.13618805,0.2687458,-2.5024,8.4763,11.9021,-1.8125,-7.0445,-6.5771,jog
0.07773697,-0.66723937,0.11484266,-2.2338,11.5541,11.4717,-1.9633,-7.1117,-6.4605,jog
-0.7341029,0.3318569,-0.123272605,-2.5112,12.4605,10.2848,-1.9409,-7.3413997,-6.2051997,jog
-0.0070162234,4.264171,-0.48268825,-2.033,10.648399,7.1117,-1.8111,-7.7358,-5.7486,jog
0.23739968,1.2401961,-0.24795893,-0.28219998,8.5444,1.7990999,-1.6201999,-8.1031,-5.2805,jog
-0.785084,-0.77997017,0.10899581,-0.7554,5.7932997,-1.2791,-1.4412,-8.4509,-4.7616997,jog
0.92268574,-0.7313104,0.5523443,-1.4103999,2.4615998,-3.5372,-1.3942,-8.6889,-4.3276997,jog
3.965807,1.224715,-0.51399946,-1.3682,0.2321,-5.0639997,-1.4363999,-8.8031,-4.0757,jog
1.5321023,0.38945276,0.9241169,3.8083,3.3609998,2.1929998,-1.5136,-8.8036995,-4.0464,jog
2.4960651,-1.3853376,1.8750421,10.4232,8.1525,18.064999,-1.4599,-8.7507,-4.1788,jog
4.182088,-0.91305155,0.7691666,-3.9594998,-3.8950999,-36.7901,-1.0124,-8.7554,-4.2997,jog
3.8828514,-0.5351354,-0.0768643,-3.4721,-23.900099,36.5938,-0.8624,-8.785399,-4.271,jog
3.2164323,-0.10782644,0.0042586033,-1.9826,-5.4017,-4.9504,-0.94949996,-8.7198,-4.3855,jog
2.5476747,-0.13379695,0.6440963,3.8051,1.7163,25.0196,-1.1083,-8.7967,-4.1903,jog
2.0003917,0.23842943,0.96380574,-5.7251,-9.8173,-4.9863997,-0.9237,-9.1192,-3.4864,jog
1.2761673,1.6167334,1.1647804,-1.7940999,-13.2849,11.339,-1.0694,-9.2115,-3.1896,jog
0.55194294,1.2252561,1.4012201,5.9979,-14.3158,6.2836,-1.4966999,-9.3181,-2.665,jog
-0.17910568,-0.67024136,0.94663167,5.5316,-10.821,-1.05,-1.6775999,-9.4885,-1.8232,jog
-1.1612024,-0.77145296,0.1979727,0.3186,-13.0091,-5.41,-1.6718999,-9.6147995,-0.96419996,jog
-1.3010732,0.058957223,-0.6420717,-3.362,-10.731999,-10.8626995,-1.6687,-9.6559,-0.3854,jog
-1.7316284,-0.25354397,-1.0304599,-3.1238,-3.5584998,-9.9699,-1.7893,-9.6412,0.124,jog
-2.8012884,-1.6595638,-0.55120987,-1.6456,1.9826,-6.6981997,-1.9729999,-9.5925,0.51019996,jog
-3.4243534,-2.6997275,-0.23815018,4.4175997,5.8022,-3.8825,-2.2110999,-9.5287,0.6954,jog
-3.7790916,-1.837308,0.14604916,11.1470995,9.0542,-10.613,-2.4879,-9.4563,0.7475,jog
-3.6021502,0.014974925,0.4309218,15.8804,6.8002,-9.1935,-2.6611,-9.4088,0.7499,jog
-3.6294122,0.52820647,-0.13795082,14.478399,6.2212996,-1.1424,-2.6712,-9.4183,0.5736,jog
-3.5862677,-0.5318716,-0.75852007,5.7318997,7.2479,-2.37,-2.5447,-9.4642,0.3498,jog
-3.4635885,0.10649999,-0.9450958,-2.8258998,7.1372,-3.8342,-2.3127,-9.53,-0.0001,jog
-3.5154421,-0.12028809,-0.60981804,-5.5453,6.9558997,-2.182,-2.2117,-9.5448,-0.41669998,jog
-3.049858,-1.2538096,-0.8190481,-5.1123,3.4498,-0.1634,-2.1936,-9.5103,-0.95449996,jog
-2.5657737,-2.3983092,-1.3764365,-1.0654,-2.9764,3.062,-2.2589,-9.4093,-1.591,jog
-2.2824194,-3.4938176,-1.4597933,3.4754,-14.459499,0.92219996,-2.3279998,-9.2529,-2.2656999,jog
-1.6521112,-3.7445166,-1.4488677,-0.0015,-23.1416,3.4341,-2.2637,-9.0731,-2.9535,jog
-0.87669635,-2.6461635,-1.2177685,-4.389,-21.1639,1.5324,-2.1422,-8.854199,-3.6309998,jog
0.38364083,-1.3746388,-1.087375,-4.5548,-16.4053,0.1836,-1.9763,-8.6505995,-4.1749,jog
1.9309974,-0.044401176,-1.0077705,0.0894,-13.1521,-0.92649996,-1.8643999,-8.3342,-4.8201,jog
3.1538796,1.4862176,-0.65774477,2.8753,-10.3631,-0.0639,-1.8456,-8.092899,-5.2218,jog
3.4893146,1.7650166,-0.27508134,1.578,-6.4314,5.534,-1.8722,-7.8764,-5.534,jog
2.839005,1.5071267,-0.0054803337,-0.0121,-0.4048,11.0686,-2.0276,-7.6856,-5.7436,jog
1.5399563,0.64912283,0.009546951,-2.3796,7.5664997,13.7992,-2.2295,-7.5664997,-5.8264,jog
-0.11878711,0.11992157,-0.19413297,-1.7153,12.8947,14.006599,-2.3446,-7.5304,-5.8279,jog
-1.1238699,0.09447467,-0.5429021,-1.0926,15.363299,13.8054,-2.3298,-7.6356997,-5.6952996,jog
-1.3140934,3.5076232,-0.69268626,-0.96699995,13.4551,9.8154,-2.171,-7.9045,-5.3828,jog
-0.21436134,2.4483829,-0.8677253,0.70849997,9.3925,4.6089997,-1.9049,-8.2648,-4.9228,jog
-1.4138039,-1.022571,-0.048712138,0.5305,6.5783,-1.0603,-1.6681,-8.6377,-4.3332,jog
0.543705,0.24731316,-0.063669614,0.3631,3.0674999,-8.7674,-1.5497999,-8.8534,-3.9222999,jog
4.5280647,2.4988751,-0.7398451,0.0554,0.46089998,-8.792,-1.497,-8.973,-3.6622999,jog
2.9201977,1.4707017,0.7071201,1.6438999,2.3525999,-7.7502,-1.4477999,-8.972099,-3.6843,jog
2.6168768,-0.3477394,2.2951953,7.0539,7.003,13.2676,-1.3366,-8.905499,-3.8825998,jog
4.124632,-0.1773778,2.0274093,-6.8314,-8.1398,-23.8524,-0.9256,-8.8158,-4.1945,jog
4.1272497,0.32354912,1.2350124,-7.6254997,-22.5162,36.1689,-0.56299996,-8.8159,-4.2581,jog
3.5504534,1.0534284,0.46219808,-1.1136,2.2445,-7.9009,-0.64169997,-8.6973,-4.4848,jog
2.8426876,1.6815026,0.6225938,4.3419,2.0856,33.239098,-0.6056,-8.7541,-4.3781,jog
1.793832,1.774197,1.0515958,-10.5246,-15.3863,-10.176,-0.243,-9.159699,-3.4944,jog
0.8608313,1.5663109,1.5794531,-7.1759996,-16.8603,11.5882,-0.2769,-9.333099,-2.9975,jog
0.24710372,0.4512374,1.4676822,0.2393,-12.419399,7.3954997,-0.72969997,-9.4591,-2.4824,jog
-0.6221575,0.2892534,0.5510004,6.0765,-11.6635,-0.5139,-1.1241,-9.597199,-1.6728,jog
-0.93689275,1.0488207,-0.43758896,4.8834,-14.969999,-5.6446,-1.3529999,-9.674,-0.86689997,jog
-1.3824753,0.8178787,-0.90844387,-0.7366,-9.168099,-11.7612,-1.4304999,-9.6998,-0.19299999,jog
-2.0611815,-0.54202944,-0.7427423,-2.3167,-1.3294,-10.9903,-1.5666,-9.6736,0.36969998,jog
-2.7889488,-1.4495832,-0.2727426,0.5726,4.3626,-7.1001997,-1.7886,-9.6189995,0.667,jog
-3.4752123,-1.4553777,-0.050544735,10.5632,9.4151,-8.2725,-2.0804,-9.5524,0.7704,jog
-3.702175,-0.8438667,0.24066345,15.0723,7.9048,-10.914599,-2.3628,-9.4837,0.80399996,jog
-3.7921119,0.57883847,0.42769292,14.507,6.7316,-5.061,-2.4645,-9.4677,0.6774,jog
-3.2428741,0.032463122,-0.86156434,7.8473997,7.3241997,-2.9638,-2.3851,-9.5013,0.4533,jog
-2.0945697,0.90722215,-1.5549313,-0.5165,7.8468,-3.392,-2.2096999,-9.5531,0.1558,jog
-2.8228083,1.4219722,-1.6664927,-3.0179,7.7316,-3.2487998,-2.0619,-9.585,-0.2129,jog
-3.2747962,-0.54337335,-1.4164743,-2.1599,5.5515,-1.6572,-2.0177,-9.5722,-0.6864,jog
-2.8916614,-2.4441764,-1.616489,-1.2009,2.5939,1.8885,-2.0351999,-9.4977,-1.3491,jog
-2.737741,-3.3400714,-1.5186982,2.5667999,-2.9856,1.1603999,-2.0960999,-9.3804,-1.9449999,jog
-2.489241,-4.5174184,-1.1110417,4.0056,-15.219399,-1.4274,-2.1423,-9.189199,-2.6717,jog
-1.8483909,-4.3848953,-0.8199557,-1.2987,-25.670399,3.3479998,-1.9765999,-9.035299,-3.2596998,jog
-0.4065221,-3.2852507,-0.8494692,-3.0892,-21.2745,-3.6318998,-1.6277,-8.9495,-3.6641,jog
1.6102408,-1.7783858,-0.8355415,-3.6690998,-18.2194,-4.2732997,-1.2145,-8.7782,-4.1995997,jog
3.4180877,0.6943967,-0.4060334,0.6304,-14.573,-2.2187,-0.9932,-8.4921,-4.8027,jog
4.2244473,2.1505249,0.084840454,0.6884,-8.9552,2.6787999,-0.9629,-8.2652,-5.1893,jog
3.871053,2.036171,0.7503345,1.8427,-4.0056,8.2859,-1.068,-8.0074,-5.5596,jog
2.3900888,1.3593845,0.7426725,-0.6229,3.9073,13.1154995,-1.4363999,-7.7318997,-5.8585997,jog
0.057595864,0.009581857,0.1929636,-4.7169,12.2044,15.137799,-1.7847999,-7.5659,-5.9783998,jog
-1.2390965,-1.0952988,-0.31244883,-3.9238,16.0486,15.9803,-2.0679998,-7.5559998,-5.8991,jog
-1.7277887,-1.6513782,-0.7068758,-1.3484,16.254,15.290799,-2.1329,-7.7613997,-5.6018,jog
-1.0016445,3.4668522,-0.6246708,-0.86289996,10.4545,8.8043995,-1.9907,-8.1498995,-5.0778,jog
0.9316568,3.5831609,-0.57513833,-0.2817,5.5246,1.0807999,-1.7972,-8.5548,-4.4445,jog
-5.002812,-2.7908337,0.7114311,0.6857,2.2408,-5.6214,-1.7545999,-8.8799,-3.7731998,jog
-0.93382096,1.9342088,0.4856553,0.58739996,-1.7045,-11.3138,-1.7838,-9.014,-3.4255,jog
4.4275165,-0.27998573,-1.8457904,-0.4103,-0.41099998,-9.1313,-1.8156999,-9.0131,-3.4113,jog
2.219256,3.2031505,-0.835716,2.0200999,3.9476998,-4.3817997,-1.8338,-8.9393,-3.5909,jog
1.8830532,-1.2942663,1.8794928,10.3977995,11.5564995,21.1409,-1.8268,-8.840099,-3.8321,jog
3.8128638,-1.8445861,1.234262,-5.0343,0.56979996,9.0261,-1.3988,-8.778,-4.1424,jog
4.0730224,-2.2421546,0.51326644,-8.8041,-40.091297,10.3101,-1.0023999,-8.873199,-4.0534997,jog
3.3294249,-1.6419709,0.31845278,8.2469,3.0835998,18.3263,-1.3332,-8.4675,-4.7637,jog
2.459518,-0.9458114,0.41818088,7.9611998,9.8543,29.8741,-1.2241,-8.3735,-4.9554,jog
2.2826812,0.11456341,0.9519898,1.4584,-4.3441,-2.31,-0.9288,-8.826099,-4.1721,jog
1.2976348,0.54681164,1.68618,-6.0580997,-20.2788,6.325,-0.5221,-9.0233,-3.8047,jog
0.4349884,0.65200263,2.2527313,2.0084,-17.9667,3.1818,-0.99829996,-9.1486,-3.3876998,jog
0.05183628,1.1480078,1.6074831,2.2566,-9.3553,5.3743997,-1.3348,-9.3557,-2.6188,jog
-0.4892856,-0.20256291,0.6651973,-0.0703,-8.6797,-6.0045,-1.5085,-9.511499,-1.8505,jog
-1.0938677,0.12901473,-0.20233601,-5.034,-12.7053995,-9.8867,-1.6148,-9.6046,-1.1457,jog
-1.439949,0.06525786,-0.47977355,-8.5288,-6.1426,-11.210199,-1.7091999,-9.6362,-0.6264,jog
-2.3762133,-1.5284721,-0.29185396,-7.2007,1.5895,-9.3736,-1.89,-9.621099,-0.17799999,jog
-3.2246354,-2.446079,0.087720245,4.3092,7.3671,-0.287,-2.2106,-9.554,0.061499998,jog
-3.5616062,-1.980268,0.40163517,12.4037,7.6011,-3.4982,-2.6362998,-9.444799,0.124699995,jog
-3.443081,-0.15194836,0.6993883,14.0467,9.8861,-9.3678,-2.9357,-9.3565,0.0809,jog
-3.6722949,0.107617,0.18985692,13.5264,8.014999,-3.326,-3.0528998,-9.3193,0.011399999,jog
-2.960986,-0.3175801,-1.5331496,7.0085998,7.1745996,-1.0051,-3.0075,-9.3321,-0.19119999,jog
-2.4763603,2.1227567,-2.0763483,-1.2961999,7.098,-3.5351999,-2.9108,-9.353499,-0.456,jog
-2.9738317,0.16634732,-1.3352293,-4.1614,6.2240996,-3.0489,-2.8699,-9.3426,-0.805,jog
-2.6416955,-1.9512607,-1.2760102,-3.2071,4.213,0.3354,-2.9318,-9.2732,-1.2572,jog
-2.1404543,-2.7464325,-1.6152323,0.96239996,-0.7906,3.9849,-3.0609999,-9.1434,-1.7881999,jog
-1.5414922,-3.112847,-1.9493582,7.7995996,-12.3421,-0.66179997,-3.2003,-8.9382,-2.4566,jog
-1.12476,-4.086095,-1.824096,6.8058,-24.4543,4.2858,-3.2166,-8.750899,-3.0404,jog
-0.72953016,-4.1249633,-1.6988162,-3.4417,-19.9685,0.1945,-2.9619,-8.657,-3.5286999,jog
0.11622147,-3.3364935,-1.7041045,-4.9205,-15.507799,-2.1055999,-2.4343998,-8.587,-4.0627,jog
1.2147666,-2.237704,-1.4967769,1.3708999,-13.7153,2.1057,-2.1848,-8.3986,-4.5671997,jog
2.3101003,-0.7738092,-0.92186546,6.0218997,-9.6666,2.5298,-2.1482,-8.210899,-4.9128,jog
2.8173628,-0.038240165,0.017767452,3.8688,-7.7497997,5.7651997,-2.1526,-8.0584,-5.1572,jog
2.068756,-0.4242721,0.4589867,0.63119996,-3.9459999,8.878799,-2.1512,-7.9983997,-5.2504,jog
0.30236083,-1.478224,0.5655216,-0.0764,2.9298,13.1538,-2.2770998,-7.9705,-5.2398,jog
-1.5578983,-2.9032855,0.44483206,-1.5383999,8.4937,13.7046995,-2.4233,-7.9837,-5.1533,jog
-2.375079,-3.162432,0.02794272,-1.5841,13.2167,13.8571,-2.4758,-8.0879,-4.9625,jog
-2.5113194,-1.642861,-0.30990067,-3.4879,12.552199,11.5487995,-2.4352,-8.2863,-4.6449,jog
-1.9620118,2.5988476,-0.25766295,-3.3388999,8.7425995,4.638,-2.3292,-8.566,-4.1672997,jog
-0.9470331,2.37843,0.41121703,-0.60719997,6.5455,-2.4799,-2.3249,-8.7716,-3.7178,jog
-7.6162853,-3.7321248,3.3576121,0.0923,2.5755,-10.5019,-2.4262,-8.9008,-3.3253999,jog
0.7047116,1.5246499,-0.23146556,-0.21079999,-0.16579999,-11.069699,-2.633,-8.8954,-3.1792998,jog
-0.16446237,2.3754978,-2.1670182,3.0784,1.4907999,-6.6533,-2.8627,-8.787,-3.2807,jog
0.73026323,0.853082,-1.0166368,4.7913,5.6889997,0.6922,-3.0948,-8.6114,-3.5263999,jog
1.8221761,-1.7214532,-0.2128429,8.1074,10.507,8.113999,-3.1452,-8.467199,-3.8186998,jog
1.5761371,-2.3642404,0.8169188,-17.7208,-14.6502,-11.9258995,-2.8827999,-8.3267,-4.3041,jog
1.4663907,-4.314646,0.027925268,-14.6143,-54.4208,12.915199,-2.7335,-8.224,-4.5894,jog
2.5365045,-3.244986,-0.9189682,24.6623,5.2124,24.0949,-3.7152998,-7.1345,-5.6092997,jog
2.5089805,-3.2552485,-0.9669124,18.546799,7.6317,23.420399,-3.523,-7.2296,-5.6116,jog
1.990356,-3.428071,-0.4312534,5.4273,-6.7040997,-20.0269,-2.9266,-7.3585997,-5.7841,jog
1.4173993,-3.3781197,-0.048642326,-5.9611998,-17.361599,9.570399,-2.6685,-7.508,-5.7163997,jog
0.7506487,-3.1026545,0.39053488,0.8756,-17.2571,3.0514998,-2.8172998,-7.7300997,-5.3364,jog
0.16653931,-2.0532403,0.7847873,7.5512,-9.2111,1.3517,-3.1773999,-7.8524,-4.9409,jog
-0.6883055,-1.7217324,0.9839992,6.1731,-5.4574,4.9579,-3.5744,-7.9972,-4.4087,jog
-1.2196884,-1.7680534,0.8840442,3.1283998,-3.8212,-3.4940999,-3.6776,-8.2801,-3.753,jog
-1.7344035,-1.8900694,0.6124186,1.8319999,-4.9916997,-3.889,-3.7247,-8.5316,-3.0834,jog
-2.3487244,-1.5032346,0.31517157,-0.3214,-4.2028,-4.8203,-3.8267,-8.6831,-2.4758,jog
-2.5883057,-1.1301705,-0.031241393,-2.1261,-0.39229998,-4.5013,-3.9538999,-8.7572,-1.9611,jog
-2.7737122,-1.501053,-0.095137894,0.2052,2.8851,-5.0236,-4.1180997,-8.7593,-1.5762,jog
-3.1330056,-2.2830827,0.3504621,3.3801,5.3022,-3.4424,-4.3019,-8.7051,-1.3726,jog
-3.9982002,-3.3487806,-0.069690995,6.1134996,5.1843,-3.6811998,-4.5052,-8.6068,-1.3397,jog
-3.6316113,-3.6114702,-1.3722302,8.8192,6.4599,-3.8402998,-4.6906,-8.4997,-1.3865,jog
-2.389949,-0.2289872,-1.8710454,11.1696,6.5357,-0.24419999,-4.8345,-8.399,-1.5013,jog
-2.2989302,0.4148473,-1.651064,9.187699,5.7107,2.7691,-4.9219,-8.2997,-1.7492,jog
-2.4916494,-0.7541917,-1.8070965,4.4459,5.8480997,3.3427,-4.9460998,-8.2115,-2.0679,jog
-2.085337,-2.6146953,-2.1956418,3.8460999,0.8286,2.6787,-4.9835997,-8.1051,-2.3746998,jog
-1.8821281,-3.105377,-2.7000768,9.631599,-8.1628,-1.3413999,-5.1401997,-7.9199996,-2.6497998,jog
-1.5977267,-3.1748586,-2.6786616,10.9592,-18.0394,3.0867999,-5.3006997,-7.7127,-2.9299,jog
-1.156717,-4.6427503,-2.7350008,1.87,-17.908499,5.2774997,-5.2925,-7.6475997,-3.1102,jog
-1.305803,-5.2942295,-2.511075,1.3761,-13.255199,1.0363,-5.0045,-7.6917,-3.4585,jog
-0.72792447,-4.414234,-2.2150147,3.1933,-14.5397,0.062299997,-4.7035,-7.6919,-3.8574998,jog
0.4643623,-3.411787,-2.1177301,7.2539,-15.546499,2.0181,-4.4688,-7.6657,-4.1756,jog
1.7608627,-2.161346,-2.050884,5.6872,-14.7857,4.5545,-4.3339,-7.6910996,-4.2701,jog
3.169937,-0.55342644,-1.4066656,0.7122,-12.111099,6.2433996,-4.1640997,-7.7668996,-4.3017,jog
3.396428,-0.5820149,-0.24802874,0.99939996,-7.2763996,7.8272,-4.0003,-7.8552,-4.2967997,jog
1.9783481,-1.5960338,0.53049284,1.1157,-0.4033,11.373199,-3.9399998,-7.9813,-4.1163,jog
-0.40601593,-3.2647955,0.34793139,0.96489996,5.7358,12.199699,-3.9461,-8.089399,-3.8934999,jog
-2.392218,-4.6818633,-0.105260804,0.5535,9.2106,11.148,-3.9074,-8.2005,-3.6948998,jog
-3.0531917,-0.81220645,-0.36468655,-0.63049996,12.0675,11.4038,-3.7824,-8.399799,-3.3623998,jog
0.4438896,5.552137,-0.6952519,-3.7996,10.8015995,8.7549,-3.5551999,-8.6637,-2.9101999,jog
1.5459603,-3.2648304,-1.1639775,-3.9122,5.7318997,-1.4246,-3.3249998,-8.9288,-2.3214998,jog
-1.7298657,-6.5282297,1.656492,-1.6401999,2.4738,-8.6081,-3.2925,-9.0835,-1.6789999,jog
-1.4154794,2.3832471,0.61955696,2.7514,0.5574,-16.5654,-3.4378,-9.1088,-1.1747,jog
1.46667,-2.8411517,-0.8246157,2.2649999,2.0205998,-15.6137,-3.5497,-9.0814,-1.0476999,jog
1.1561235,-0.98366755,0.36161476,5.272,9.0286,8.355,-3.6244998,-9.0384,-1.1568999,jog
1.7268811,-2.4396386,0.8718443,9.8199,18.503,25.645199,-3.5730999,-8.9807,-1.6581,jog
2.7370427,-1.2805655,0.5084144,-7.3431997,-2.7621999,-27.5107,-3.2380998,-9.0449,-1.9678999,jog
2.3622508,-1.5874991,0.08909906,0.257,-35.1128,15.7154,-3.1304,-9.174,-1.486,jog
1.7497624,-1.0977248,0.23143066,16.6427,-10.4021,12.723599,-3.6095998,-9.014999,-1.3675,jog
1.6323192,-1.2457986,0.48043677,1.3222,0.22919999,13.273999,-3.6366,-8.9277,-1.8003,jog
1.4297912,-1.2128817,0.87461936,-5.6584997,-6.1647997,3.8674,-3.5695,-9.0355,-1.3373,jog
0.96036744,-0.41821578,1.0099871,-2.5372,-10.161699,7.24,-3.6506999,-9.039599,-1.0618,jog
0.6132389,0.02713987,0.7610508,4.3399,-12.5199995,3.2879999,-3.8397,-9.0055,-0.57159996,jog
0.009232792,-1.1767185,0.3310017,4.2924,-13.874399,-6.2623,-3.9296,-8.984799,0.0155,jog
-1.4233859,-2.339771,-0.21855013,1.466,-10.634999,-6.3251,-3.9275,-8.9684,0.5588,jog
-2.716221,-0.59507,-0.8548448,0.2855,-5.3796,-6.7478,-3.9434,-8.9282,0.95199996,jog
-2.6834438,-0.1534668,-1.2948248,1.3567,-1.4562,-6.9512997,-3.9947,-8.8505,1.3714,jog
-3.26867,-1.3981483,-1.2875293,5.0209,1.9777,-6.6684,-4.0892997,-8.7541,1.6768,jog
-3.636568,-2.9952292,-1.003285,8.1917,4.9653997,-5.9782,-4.2397,-8.6428995,1.8692,jog
-3.778184,-2.631328,-0.4730715,11.9705,5.3845997,-12.562699,-4.3605,-8.5619,1.9617,jog
-4.020331,-0.8418596,-0.34300956,16.6847,5.2760997,-15.2339,-4.3578,-8.541699,2.0537,jog
-4.1476355,-1.5902393,-1.1228226,16.5002,5.1168,-2.7819,-4.2125,-8.6275,1.9973999,jog
-3.7296638,0.012444197,-1.1080048,9.1682,6.5281,-1.2759,-4.0295,-8.8033,1.5603,jog
-3.853495,0.104492866,-0.8814611,-1.9045,6.1679997,-4.2984,-3.7833,-8.9825,1.0818,jog
-3.6627305,-0.92249376,-1.4487629,-6.9669,4.3603997,-4.1572,-3.5163,-9.1362,0.5778,jog
-3.5804558,-2.7148073,-1.9592543,-4.9832,2.0324,-1.4936999,-3.2837,-9.2403,0.0521,jog
-3.3836699,-4.047052,-2.0187175,2.6564999,-8.4728,-3.2099998,-3.2057,-9.2575,-0.438,jog
-3.2478483,-5.285991,-1.7298481,6.481,-21.467299,-3.1536,-3.1467,-9.2176,-1.1416,jog
-2.58855,-4.455599,-1.1336262,-2.042,-27.1202,2.0743,-2.9789,-9.1643,-1.8194,jog
-0.8179311,-2.7135682,-0.7562337,-2.0174,-17.9609,-5.6271,-2.7681,-9.0661,-2.5123,jog
0.96326464,-1.1208678,-0.5223247,2.8892999,-13.3404,-6.1921997,-2.5951,-8.8912,-3.222,jog
2.2043858,0.20086995,-0.33370695,2.643,-11.4709,-1.875,-2.3782,-8.6817,-3.8911998,jog
3.3874922,2.12246,-0.08304276,-0.0266,-8.420899,3.2238998,-2.2681,-8.4955,-4.3417997,jog
4.047785,3.29951,-0.22219786,-1.2995,-3.4715,6.9611998,-2.2896,-8.2768,-4.7351,jog
4.0457253,3.4137943,-0.8240048,-2.4875,4.7297,12.4009,-2.5433,-8.0149,-5.0459,jog
3.2338858,2.968107,-0.9144478,-3.4766998,11.581699,12.7121,-2.7897,-7.8257,-5.21,jog
1.5830486,0.8978323,-0.79377574,-0.83339995,12.7905,11.417299,-2.9519,-7.7792997,-5.1900997,jog
-0.9469284,-1.3822484,-0.8551415,0.16149999,12.045,12.0386,-2.9858,-7.9164,-4.9582,jog
-2.1206622,2.7898564,-1.531858,-0.9928,13.024099,12.4835,-2.9199998,-8.1208,-4.6577997,jog
-0.08141961,3.653009,-0.9122487,1.982,11.972899,6.5576,-2.7175,-8.4229,-4.2237,jog
0.9249023,-1.2723451,-0.5249427,3.987,8.3225,2.7273,-2.3885,-8.7834,-3.6490998,jog
2.9001787,0.5329712,0.79093087,1.1046,3.3539,-2.7317,-2.0461,-9.061299,-3.1424,jog
5.208813,3.8262155,0.8522792,-0.4238,1.5538,-9.511499,-1.7041,-9.2815,-2.6682,jog
2.1990275,-2.0182114,1.3295919,4.097,-1.4805,-17.800299,-1.5080999,-9.3852,-2.4111,jog
3.5492842,-1.2263207,1.0359576,10.7883,-8.7513,9.0876,-1.4131,-9.3615,-2.5563,jog
5.1792994,0.53366935,0.23872614,-1.9045,-4.6468,27.941898,-0.9687,-9.2785,-3.0232,jog
4.4359813,0.6742207,0.09772099,-13.7148,4.1084,-15.6832,-0.5341,-9.2863,-3.1062,jog
3.1073668,1.1366283,0.75447094,-4.5951,3.3781998,29.5183,-0.5141,-9.3406,-2.9422998,jog
2.0831203,0.71144855,0.7622202,8.0071,-8.4305,5.4544997,-0.6324,-9.4861,-2.4046,jog
1.654607,2.1310122,0.66620964,3.3521,-21.3321,-0.8975,-0.6454,-9.6764,-1.456,jog
0.8616167,2.8209581,0.83103853,2.6759,-15.120999,10.285,-0.9499,-9.7093,-0.9981,jog
-0.18985692,0.5091998,0.86219263,0.71309996,-7.8697,3.6752,-1.1642,-9.7332,-0.2821,jog
-1.3418964,-0.39088395,0.1651605,-3.5207,-11.6911,-9.0287,-1.2157999,-9.6971,0.8107,jog
-1.421623,1.2054117,-0.60686845,-0.020399999,-18.3972,-11.9395,-1.2444999,-9.600699,1.564,jog
-1.4465638,0.6070779,-1.2839689,1.8686999,-10.7933,-15.5967,-1.4274,-9.467199,2.1223,jog
-2.7558575,-1.3070421,-1.05095,1.2477,0.3471,-9.392099,-1.6006999,-9.3496,2.4882,jog
-3.58447,-2.6854508,-0.64622563,1.1755999,6.8202996,-8.0722,-1.8326,-9.242499,2.7177,jog
-3.919643,-1.6961633,-0.37763688,6.9318,10.6654,-12.261,-2.1364,-9.165,2.7584,jog
-3.8180647,0.535659,-0.16905259,13.3789,8.5322,-14.5601,-2.317,-9.1402,2.694,jog
-3.920376,0.80663884,-0.51150364,15.6384,6.7436,-0.75299996,-2.3209999,-9.2051,2.4594,jog
-4.049408,-0.5774771,-0.6208311,10.818399,8.487599,-4.5371,-2.2570999,-9.301499,2.1345,jog
-4.700294,-0.20476203,0.077667154,0.063,4.9746,-8.087299,-2.0342,-9.417,1.8305999,jog
-4.58114,-0.6325946,0.04108505,-3.6848,3.428,-5.3711,-1.7872,-9.547299,1.3503,jog
-3.9309177,-0.37706092,-0.30085987,-5.8870997,2.1905,-3.2537,-1.5855,-9.653299,0.68439996,jog
-3.3338757,-1.8174462,-0.6904348,-3.9773,-2.6659,0.46899998,-1.5044999,-9.6904,0.040799998,jog
-2.8284109,-3.899083,-1.066815,-1.9876,-13.7681,-5.3966,-1.4642999,-9.6697,-0.7227,jog
-2.2693992,-4.9783072,-1.1943811,-2.8360999,-20.991499,0.1441,-1.3317,-9.5855,-1.5856,jog
-1.4231938,-3.698981,-0.85931283,-3.3181999,-22.972198,-2.4731998,-1.2418,-9.4583,-2.2731,jog
0.29967302,-1.5554898,-0.9344842,-4.394,-20.6709,1.7681999,-1.2643,-9.2001,-3.151,jog
2.453933,0.71230376,-0.9551489,-3.4420998,-17.636099,-3.7891,-1.314,-8.8712,-3.9678998,jog
4.1398163,2.3996007,-0.7668453,2.8601,-10.6921,0.0279,-1.2911,-8.5387,-4.6468,jog
4.5860796,2.6944392,-0.67833966,6.4495997,-6.256,3.9650998,-1.3501999,-8.2283,-5.1615,jog
3.9460323,2.3949409,-0.63906974,3.7640998,-0.83849996,10.4630995,-1.6164,-7.9286,-5.5401998,jog
2.7818978,1.9000876,-0.4781155,-1.0905,8.6186,15.607599,-1.9494,-7.7359996,-5.7029,jog
1.0762748,0.29619983,-0.46898744,-2.8000998,15.698,17.4286,-2.2405,-7.6074996,-5.7685,jog
-0.2713638,-0.706806,-0.8090125,-1.5697,16.704899,17.3339,-2.2744,-7.6828,-5.6542,jog
-0.8050157,-0.057648227,-0.89116514,2.2421,14.1213,13.196099,-2.046,-7.9921,-5.3016996,jog
-0.6421415,4.6618443,-0.5571265,3.5714,10.4551,6.8890996,-1.6787,-8.434899,-4.7121,jog
1.8703821,5.3008094,-0.26031587,1.1391,6.8443,1.5787,-1.3254,-8.8546,-4.001,jog
-2.9804115,-8.696156,0.52879983,-1.3692,3.5595999,-5.0167,-1.0332999,-9.1592,-3.3481998,jog
0.035744343,6.6831274,1.3583374,-1.3216,0.9359,-10.788899,-0.82589996,-9.340199,-2.8716998,jog
4.912369,0.37067303,-1.2093211,0.6515,-0.7567,-8.4230995,-0.7104,-9.4126,-2.6583,jog
3.0320208,3.5440133,-0.3361155,1.1360999,3.0925999,-3.6743999,-0.6066,-9.4081,-2.6998,jog
3.671457,0.54476964,1.4920645,4.7071,12.4122,23.466099,-0.4412,-9.3722,-2.8525,jog
4.5497766,0.62662554,1.7012771,-10.624599,5.822,-4.6672997,-0.0254,-9.3328,-3.0112,jog
5.0736723,0.44924775,1.3804681,-3.4483,-33.1035,4.5369997,0.2905,-9.4278,-2.6834998,jog
4.260942,0.6091548,0.6907664,5.1394997,-7.0183997,16.046099,-0.3245,-9.2507,-3.2386,jog
2.9179986,1.5428362,1.0888062,-0.927,2.5398,32.8873,-0.1222,-9.2476,-3.2614,jog
2.3553393,2.207091,1.1600505,-4.8078,-6.2588,-4.0232,0.1006,-9.5004,-2.4294999,jog
1.5254875,3.1645613,1.6247969,1.2629,-14.5639,10.9409,0.3159,-9.6291,-1.8305,jog
0.4231027,2.2306705,1.9503706,3.4763,-18.344799,3.3555,0.014699999,-9.7512,-1.0411999,jog
-0.9470506,-0.38414696,1.1210424,6.161,-12.873099,1.9142,-0.2771,-9.7998,-0.23719999,jog
-1.6552528,1.3473418,-0.13390166,0.7355,-16.0294,-12.19,-0.5492,-9.762,0.7554,jog
-1.4264401,1.2291481,-1.1617609,-5.0393,-16.3337,-15.0808,-0.6975,-9.6538,1.5770999,jog
-2.4773204,-1.3212317,-1.2008913,-3.8023999,-5.025,-14.6542,-0.9636,-9.528,2.1115,jog
-3.2246006,-2.76516,-0.47040114,-1.4504,2.6657999,-8.538199,-1.2856,-9.3931,2.5072,jog
-4.1559954,-2.4380853,-0.15723671,7.3708997,9.1525,-9.5371,-1.8007,-9.2506,2.7117,jog
-4.2694592,-1.1406773,0.29984757,18.9811,10.023,-17.3107,-2.2312999,-9.1601,2.6987998,jog
-4.164792,1.6081463,0.07038913,22.9096,7.737,-3.6100998,-2.4136999,-9.158899,2.5411,jog
-3.516751,1.2676501,-0.6721786,13.471399,8.9213,-3.9733,-2.4487998,-9.2449,2.1689,jog
-3.4787729,1.0812141,-1.0831863,-0.3497,6.5931,-8.5603,-2.2784,-9.3585,1.8427999,jog
-4.321191,0.7540171,-0.65966463,-5.7679,4.5909,-4.9473,-1.9792999,-9.504,1.3874999,jog
-4.1049795,-0.11468559,-1.0065314,-5.5891,3.4664998,-3.4032998,-1.8246,-9.595699,0.8732,jog
-3.7268364,-1.5818791,-1.5117344,-5.1322,0.91459996,2.4874,-1.7716,-9.6425,0.2289,jog
-3.4855447,-4.6354723,-1.4015343,0.4265,-3.2152,2.2616,-1.8386999,-9.6118,-0.6337,jog
-3.0144804,-6.0628724,-1.2150983,1.1819999,-17.503899,-3.2013998,-1.8194,-9.533,-1.4075999,jog
-1.9680681,-5.277317,-1.1139913,-0.84569997,-26.2248,0.25779998,-1.6451,-9.432099,-2.1211,jog
-0.5630083,-3.0707147,-0.8815833,-4.0622997,-25.870499,-2.8423,-1.3607,-9.2765,-2.8748999,jog
1.3344089,-0.95792395,-1.008556,0.50949997,-20.6943,-3.2877,-1.2057999,-9.0394,-3.6062999,jog
3.1692038,1.8499618,-0.6858097,3.7106,-14.4865,-4.7753997,-1.0333999,-8.7355995,-4.3349,jog
4.044015,2.743256,-0.70017374,4.4681997,-8.4337,1.1697999,-0.9084,-8.3846,-5.0042,jog
4.0443816,2.4562716,-0.96305525,4.7521996,-3.4399,10.2415,-1.1335,-8.0828,-5.4361997,jog
3.532145,1.9324111,-0.81798345,-0.7855,5.8177,16.133299,-1.6171,-7.7791,-5.7481,jog
2.5631905,0.67169,-0.32883748,-3.4543998,14.937099,17.6835,-2.0568,-7.5919,-5.8567,jog
0.6972416,-0.65435886,-0.3381401,-3.074,16.979399,18.3121,-2.2803,-7.5649996,-5.8086,jog
-1.0137745,-1.1596491,-0.69064426,-2.7085,15.3434,15.690499,-2.234,-7.7627997,-5.5601997,jog
-1.6067501,3.4324868,-0.17893115,1.9061999,10.6571,12.1977,-1.8964,-8.1662,-5.0878997,jog
0.4309567,9.103463,0.6102893,2.3758,7.4515996,6.1914997,-1.5519999,-8.5401,-4.5636,jog
-3.525635,-7.0243745,0.72755796,-0.25689998,3.5756998,1.7754999,-1.1747999,-8.9105,-3.9232,jog
-0.8231496,5.3591557,1.7707587,-2.1536999,0.8383,-7.4055,-0.88629997,-9.1838,-3.3228998,jog
5.1554933,0.9826029,-0.91193455,-1.1286,-1.4885,-12.3214,-0.7836,-9.3477,-2.8592,jog
2.7552989,2.8108876,-1.6121432,0.129,1.1344,-10.352799,-0.75659996,-9.3916,-2.7194,jog
2.4392374,0.06290167,1.0501122,-0.5335,10.3055,7.1197996,-0.6922,-9.3445,-2.8932,jog
3.6681411,-1.5239866,1.506289,-6.3272,7.8363,26.619099,-0.4491,-9.2484,-3.2301998,jog
4.5202284,-1.1245157,1.2240517,-10.7997,-30.3643,-0.0387,0.0222,-9.274,-3.1876,jog
4.194951,0.11829842,0.6244963,11.4372,-5.4286,34.8332,-0.6695,-8.996799,-3.8442,jog
3.216118,0.77949893,0.49946088,18.039999,4.5373,30.4707,-0.5744,-8.920899,-4.032,jog
2.5951126,0.96387553,0.8321032,6.1426,-7.1956,-3.9945,-0.33699998,-9.2991,-3.0956,jog
1.8285815,1.8529812,1.2902521,-8.9372,-19.161,3.3002,0.17,-9.474299,-2.5254998,jog
0.9172578,2.1206448,1.629038,-3.5814,-13.525399,4.9447,-0.0077,-9.578899,-2.1008,jog
0.22385593,0.7301934,1.3677273,-0.217,-10.1264,4.5387,-0.35169998,-9.702499,-1.3808999,jog
-1.098196,-0.11360348,0.5522047,3.1269,-13.453799,-6.7363,-0.636,-9.778,-0.3931,jog
-1.3807648,0.3690324,-0.55447364,0.5397,-16.6078,-11.1167,-0.7456,-9.771999,0.34899998,jog
-1.9525871,-0.67704815,-1.3462946,-4.1089,-8.2738,-12.9417,-0.85319996,-9.721399,0.96779996,jog
-2.9088006,-2.3789186,-0.7392342,-4.5425,-0.55619997,-11.349199,-1.0569999,-9.632899,1.5034,jog
-3.9421053,-2.829807,-0.26057765,2.1390998,5.8238997,-6.9599,-1.3349999,-9.5505,1.782,jog
-4.589989,-1.9973897,0.020210912,12.8531,10.2609,-11.3081,-1.7225,-9.466599,1.8937,jog
-4.050298,-0.29764846,0.73743653,18.7862,8.9461,-12.158,-2.0070999,-9.4071,1.91,jog
-4.033351,2.1655521,1.1266799,18.167799,9.5715,-3.5723999,-2.1045,-9.424399,1.7091,jog
-4.3534446,-0.32951817,0.27839747,5.9997997,7.9611998,-7.3861,-2.0084999,-9.491099,1.4334999,jog
-3.368241,0.46593308,-0.796481,-5.0811,4.6475,-7.0529,-1.7049999,-9.5998,1.0512,jog
-4.0854316,0.33145547,-0.45320964,-5.5997996,3.0263,-2.0774,-1.5393,-9.6654,0.6162,jog
-3.8501265,-1.215011,-1.09858,-7.633,2.0657,0.0325,-1.4675,-9.6953,-0.1305,jog
-3.1295674,-3.5161753,-1.8206053,-8.680699,1.1312,3.7995,-1.4886999,-9.6532,-0.8771,jog
-2.8079207,-5.4281135,-2.079141,0.3329,-6.0547,-2.1204,-1.6372,-9.528,-1.6452,jog
-2.0117188,-5.7135797,-1.6054586,8.535399,-21.2242,-3.9434998,-1.759,-9.3234,-2.4796999,jog
-0.74644244,-3.6158335,-1.2884718,2.2072,-31.438099,3.9046,-1.8346,-9.0338,-3.3456,jog
0.9413957,-1.637241,-1.2966051,1.2916,-20.530699,-3.944,-1.6739999,-8.840099,-3.9011998,jog
2.806664,0.4185474,-1.0923667,1.1726999,-15.2343,-1.9015,-1.5648999,-8.5075,-4.6198,jog
4.040594,1.9593939,-0.5883854,3.4601998,-12.2443,-2.1413999,-1.4988999,-8.1633,-5.2233,jog
4.364545,2.3153539,-0.44217917,2.8404999,-7.8285,6.0471997,-1.5852,-7.8816,-5.6157,jog
3.7044787,2.0470095,-0.5372647,1.2191,1.6847999,12.620999,-1.9152999,-7.608,-5.8838,jog
2.5168521,1.3559637,-0.64407885,-2.08,11.8305,16.8724,-2.3034,-7.4567,-5.9379997,jog
1.1436445,-0.09136798,-0.7518006,-1.994,14.5427,15.787,-2.5365999,-7.4329,-5.8725,jog
-0.42324233,-1.1928627,-0.9524785,-2.718,15.2288,16.590399,-2.5284,-7.6089997,-5.6461,jog
-1.5833104,1.5508647,-0.88379985,-0.7385,13.2057,11.1699,-2.3113,-7.969,-5.2271,jog
1.5581776,7.0611134,-0.7228106,1.6879,9.8178,6.8338,-1.9919,-8.4351,-4.5881,jog
-2.6882782,-4.1158004,-0.2534218,0.8411,6.4347997,1.3192999,-1.7433,-8.7884,-3.9866998,jog
-0.94891804,4.06543,1.4585193,-0.7015,3.7356,-4.1623,-1.4951,-9.0802,-3.3887,jog
5.5975327,0.8428369,-0.44237116,-1.0538,0.5406,-9.9911995,-1.2899,-9.258699,-2.9633,jog
4.033665,3.2691936,-1.1702433,0.5463,-1.2580999,-13.4822,-1.1543,-9.3427,-2.7477,jog
2.7492251,-0.014398966,1.3703976,4.4638,4.5843,4.7219,-1.0412999,-9.3405,-2.7998,jog
4.149224,-1.1040255,1.0671816,-1.844,7.2240996,35.236797,-0.7841,-9.2639,-3.12,jog
3.9632413,-1.3371665,0.5250823,-9.3185,-20.0641,-25.8049,-0.2233,-9.3656,-2.8990998,jog
2.589667,0.5946337,0.26248008,1.1601,-7.5987997,39.524998,-0.4344,-9.1999,-3.3678,jog
2.5621781,1.6270483,0.5412615,9.6862,2.8276,33.9132,-0.41889998,-9.1235,-3.5714,jog
2.0967164,2.2012966,1.1829667,7.6856,-5.2606997,-2.2138999,-0.27179998,-9.498199,-2.4246,jog
0.9879087,2.3202057,1.4272779,-3.6125,-20.7184,4.9265,0.052699998,-9.652699,-1.7294999,jog
0.5628338,1.6324065,1.1154574,1.9488,-17.3541,4.1714997,-0.213,-9.7318,-1.1903,jog
-0.26647687,-0.0453262,0.23867378,-1.0030999,-15.697499,-6.429,-0.43829998,-9.7899,-0.3669,jog
-0.8068657,0.61770695,-0.6751108,-2.7745,-12.1746,-8.488299,-0.53999996,-9.7824,0.4272,jog
-1.0376681,1.3088923,-1.102856,-5.8533998,-7.4666,-12.433499,-0.59929997,-9.7439995,0.9303,jog
-2.1167877,-0.46736425,-0.67106164,-2.9587,-0.75619996,-11.0182,-0.7579,-9.668099,1.4567,jog
-2.9303904,-1.8831578,-0.049741883,4.3813,5.0371,-3.7982,-1.0274,-9.5873995,1.7878,jog
-3.4750726,-1.3728759,-0.02232276,10.329599,10.2708,-3.7278998,-1.3859,-9.515699,1.9235,jog
-3.596792,-0.6337116,-0.007976155,12.1145,10.391,-13.436999,-1.6606,-9.4594,1.9828999,jog
-3.4316664,0.86009824,0.4539078,12.3526,7.3041997,-6.6528997,-1.7026,-9.461599,1.9359,jog
-3.7759151,0.0004712389,-0.023177972,5.9294,8.6851,-4.1495,-1.5849999,-9.5187,1.7469,jog
-2.8734927,-0.23596852,-0.77777106,-4.7746,8.2456,-9.5855,-1.4329,-9.5793,1.5342,jog
-3.5109043,2.0562422,-0.72523665,-5.2209,6.3689,-4.5828,-1.2906,-9.654099,1.1407,jog
-3.5561955,1.0064092,-1.0388199,-1.077,3.6759999,-2.279,-1.2471,-9.7071,0.6217,jog
-3.0023503,-0.6807133,-1.2475787,-1.62,3.5698,-0.092999995,-1.2336,-9.7283,-0.083399996,jog
-2.5806265,-1.9082034,-1.4323045,-1.7743,-0.2111,1.8450999,-1.2363,-9.7032995,-0.69769996,jog
-1.9057076,-2.4498315,-1.2521341,4.8847,-13.7879,-7.6001997,-1.3053,-9.6205,-1.3826,jog
-1.0817376,-2.798932,-1.1896164,0.4761,-32.394398,3.5549998,-1.2997999,-9.489699,-2.1036,jog
-0.0137008345,-2.0759993,-1.3488079,-5.3089,-23.6264,-3.3823,-1.1633999,-9.3729,-2.6389,jog
1.1240968,-0.61238366,-1.1674856,-8.901,-16.9658,-0.3946,-0.90559995,-9.1786995,-3.3318,jog
2.4953496,1.2970065,-0.8246157,-6.0908,-13.8633995,-1.9072,-0.61689997,-8.907499,-4.0551,jog
3.6861005,2.5999646,-0.32850587,0.7169,-8.512,1.7864,-0.47169998,-8.6887,-4.5224,jog
3.8248367,2.6339114,0.37089992,1.6814,-2.3587,5.378,-0.40649998,-8.4579,-4.9465,jog
2.6051831,1.5370417,0.50211376,0.0932,1.6464,9.7339,-0.44619998,-8.2757,-5.2425,jog
0.9362295,0.33892548,-0.041015238,-3.4236,7.2718,13.9515,-0.548,-8.174,-5.3903,jog
-0.51726323,0.23434536,-0.3583161,-4.6468997,14.0926,15.222799,-0.5505,-8.189,-5.3672,jog
-0.48115236,0.5505816,-0.30382693,-4.2356,18.529299,16.607399,-0.4224,-8.3206,-5.1728997,jog
-0.9355663,3.1481202,-0.31456068,-3.4738,14.5471,12.0421,-0.1546,-8.5748,-4.7558,jog
0.60510564,3.9296436,-0.43303365,-3.2415,8.5994,4.6186,0.1328,-8.903399,-4.1087,jog
-1.3979564,-6.8141146,-0.10752974,-0.8131,5.4537997,-1.5626,0.2738,-9.2195,-3.3309,jog
-2.4552767,2.4428675,0.49726176,1.5098,2.8667998,-8.9516,0.2749,-9.3686,-2.885,jog
0.5668131,6.270235,-1.900681,-1.2715,0.0067999996,-11.9358,0.3006,-9.4212,-2.7054,jog
2.9020462,-2.8951871,-2.8453753,-0.6938,2.4378,-5.5554,0.38,-9.390699,-2.7998,jog
2.0754583,4.1077023,0.43029347,3.4943,8.2041,5.1198997,0.4675,-9.3612995,-2.8839998,jog
2.980551,3.5636308,2.1289525,0.0872,10.9347,24.704699,0.7364,-9.297,-3.0319998,jog
3.54897,1.8406068,1.4934608,-17.7659,-26.2561,-63.433697,1.0160999,-9.3223,-2.869,jog
3.5104854,1.2092514,0.33967596,14.7486,-37.1886,72.678795,0.61829996,-9.236,-3.2379,jog
2.4255888,1.5490844,-0.42502257,4.7093,7.39,24.748299,0.70379996,-9.0571995,-3.6934,jog
1.6174141,1.7959263,-0.3848451,-14.137099,12.1185,7.9006996,1.4179,-9.0589,-3.4779,jog
1.3824404,1.8604512,-0.33527774,-12.8328,-3.4148,8.5346,1.7807,-9.167,-2.9938998,jog
0.42949063,2.9526608,-0.18877481,-8.785,-14.740399,4.5582,1.9104999,-9.2858,-2.5086,jog
-0.59493035,2.780711,0.23209389,4.0157,-13.974899,2.5525,1.6622,-9.4923,-1.8169999,jog
-1.4870031,1.6578358,0.21835814,14.2239,-7.5585,3.5577,1.4274,-9.6421995,-1.0766,jog
-2.0547063,1.118023,-0.22919664,12.348,-5.0039,-6.6157,1.3714,-9.705999,-0.2881,jog
-2.1543646,0.8723156,-1.0503217,1.9261999,-7.9444,-7.2748,1.4472,-9.697599,0.1748,jog
-2.2148054,0.41757002,-1.3116673,-5.4272,-5.6461997,-11.738,1.5143,-9.6717,0.578,jog
-2.7873955,-0.49312532,-1.0311406,-8.5731,-0.3127,-11.807099,1.5515,-9.641,0.90209997,jog
-3.4704127,-1.0432007,-0.4994783,-2.8560998,3.9206998,-8.0703,1.5322,-9.628099,1.0584999,jog
-3.9837663,-0.076846845,0.2976659,4.7781,8.3137,-5.4881997,1.4294,-9.6474,1.0261999,jog
-4.305221,1.479917,0.7010639,9.8095,12.0271,-5.3992,1.3504,-9.6833,0.7607,jog
-3.5183046,0.5809852,0.17184512,7.7612996,9.6409,-5.0976,1.3784,-9.699699,0.4296,jog
-3.1050105,2.83527,-0.55936056,1.1187999,4.7068,-4.1272,1.5778999,-9.6786995,0.0378,jog
-4.0354805,2.2499912,-0.4988151,-6.1082997,3.1541,-3.2626998,1.8326,-9.6265,-0.3755,jog
-3.799477,0.95497435,-0.45540875,-10.849899,4.2841997,-1.2968,2.024,-9.5504,-0.9292,jog
-3.2751975,-0.50455725,0.5549798,-11.781099,0.0755,-1.6536,2.0921,-9.4409,-1.6315,jog
-2.4101775,-1.4911046,1.2571607,-5.9695997,-7.8177,-5.6837,2.0274,-9.2751,-2.4557,jog
-1.6014967,-1.9235274,1.649755,-2.1915998,-26.2487,-2.4953,1.9856999,-9.084499,-3.1139998,jog
-0.5912652,-1.4449755,2.0109684,2.3105,-26.8846,0.113299996,1.9945999,-8.8508,-3.7222,jog
0.53979546,-0.8526457,2.2779863,-6.6398997,-15.4635,-4.8118,2.3151999,-8.5823,-4.1416,jog
1.8176557,0.5756968,2.4009273,-13.1796,-12.8348,-6.5492997,2.5983,-8.200399,-4.7086997,jog
2.9536033,2.208592,2.5435555,-9.9546995,-10.227799,-1.7558999,2.7663999,-7.7967997,-5.2655997,jog
3.4417543,3.0757065,2.2264466,-6.2696,-5.2703,3.7161999,2.6118,-7.4291997,-5.8441997,jog
3.50038,3.3892548,1.393052,-5.5397,-1.2991999,8.248,2.2839,-7.2226,-6.2278,jog
3.0434701,3.1617687,0.4916767,-6.5485997,3.31,9.9288,1.8022,-7.0856,-6.5357,jog
2.3919737,2.073207,-0.16570155,-5.7212996,7.8131,11.9821,1.2789,-7.0678,-6.6768,jog
1.6975596,0.5107881,-0.7075565,-4.1013,9.7364,13.2436,0.88479996,-7.1768,-6.6240997,jog
1.0175967,2.2293613,-1.4795156,-1.7262,10.1552,13.6751995,0.6082,-7.4486,-6.3496,jog
0.3111922,6.6915574,-1.3247224,2.3938,9.4657,12.091,0.48929998,-7.8378,-5.8736,jog
-3.199049,4.9143233,-0.41734314,4.7423997,7.0179996,9.7323,0.4746,-8.2438,-5.2899,jog
0.22209315,-1.1526853,0.18214256,4.6201,3.5372,4.3598,0.5773,-8.6072,-4.6639,jog
3.9776053,2.0033064,0.9879262,2.8725998,1.3057,-1.9914999,0.7851,-8.9059,-4.0297,jog
4.597407,8.099829,0.7590437,4.5469,0.0359,-11.001699,0.95449996,-9.0678,-3.6100998,jog
1.9077147,1.8756006,1.0661343,11.5414,0.7071,1.5051,1.1189,-9.1703,-3.2898998,jog
2.8839645,0.94436276,1.7926974,2.8207,1.4008,-3.6109998,1.5726,-9.1971,-3.0182,jog
4.4101853,0.5194798,1.0081196,-9.4158,-9.5225,13.8833,2.1392999,-9.1689,-2.7429,jog
4.9866676,2.176862,0.5073323,-23.969,-2.2072,7.4199996,2.5023,-8.9625,-3.0953,jog
3.682191,2.7962444,0.60611796,-6.1049,-0.20349999,23.5882,2.398,-8.9852,-3.1118999,jog
2.1203482,2.6260397,1.1149337,14.139199,-6.8848,6.2827997,2.3260999,-9.247,-2.2914999,jog
1.266917,2.9898188,0.8813389,2.1443,-22.169699,-6.3230996,2.4549,-9.436999,-1.0416,jog
0.9341177,4.7295456,0.9703507,4.0011997,-17.8445,7.8717,2.2652,-9.5257,-0.54609996,jog
-0.2730393,2.4977582,1.5473914,3.7022998,-9.939,6.7208,1.9266,-9.615399,0.0457,jog
-1.7656623,0.17446311,1.050758,-0.7078,-6.2767997,0.3714,1.7277,-9.6098995,0.9131,jog
-2.0244772,1.2849463,-0.14149384,-4.3029,-15.6524,-12.2022,1.5863999,-9.5015,1.8364999,jog
-1.5647051,1.1094708,-1.2143477,-3.7796,-20.074299,-17.6471,1.3475,-9.3554,2.6134999,jog
-2.6091626,0.081786126,-1.4061769,-0.95369995,-6.6759996,-13.5092,0.95369995,-9.2499,3.1141999,jog
-3.6331298,-1.5315439,-0.45753807,0.59279996,4.6383,-10.8301,0.63299996,-9.1886,3.3672,jog
-4.6016655,-1.8325084,0.49073422,5.2964997,11.5729,-13.4007,0.1265,-9.1311,3.5744,jog
-4.614668,-0.39992476,1.1403458,16.593,10.1573,-13.934,-0.33359998,-9.1472,3.5193,jog
-4.3840575,2.8077636,1.1010584,20.3776,6.6970997,-2.3690999,-0.5387,-9.256599,3.1927998,jog
-4.2277284,1.5620173,0.19540706,11.7101,7.634,-2.3989,-0.5894,-9.3796,2.8009,jog
-3.9875362,1.3456663,0.13861404,-3.4445999,5.8266,-10.1537,-0.4191,-9.4747,2.4947,jog
-4.4987607,1.5620347,0.38018507,-13.045099,5.1085,-9.8515,-0.1545,-9.599999,1.9964,jog
-4.2648516,-0.051888637,-0.052708942,-12.6447,3.5031,-5.0428,-0.0156,-9.7205,1.2967,jog
-3.568256,-2.5543592,-0.7323925,-8.6784,0.0731,2.1223,-0.0887,-9.8013,0.3096,jog
-3.1482599,-4.3719625,-1.0453126,-2.7298,-4.999,0.19909999,-0.2905,-9.7894,-0.5031,jog
-2.5363998,-5.2143106,-1.040129,-1.5577999,-19.6526,-5.3480997,-0.4524,-9.6986,-1.3791,jog
-1.2667774,-4.0836864,-1.2449434,-0.43219998,-27.3274,2.7206,-0.43069997,-9.5259,-2.2891,jog
0.46965066,-2.2466576,-1.1709589,2.6067998,-18.7503,-1.6033,-0.39049998,-9.335899,-2.9763,jog
2.1489542,0.28284806,-0.72743577,2.2861,-13.2828,-3.6676998,-0.3542,-9.0273,-3.8147,jog
3.6045587,2.957984,-0.26570892,3.2417,-10.2079,-3.0842,-0.3488,-8.6306,-4.6433,jog
4.4692297,4.1491885,-0.14791666,3.4438999,-7.0463,3.5609999,-0.46269998,-8.3206,-5.1693,jog
4.5508413,3.3504038,-0.45020768,1.4706,-1.9605,10.0329,-0.7646,-7.9930997,-5.6296997,jog
3.8648572,1.8840655,-0.55555576,-1.3061999,5.0136,14.8108,-1.2041999,-7.7201996,-5.9259996,jog
2.8349557,0.23888321,-0.45544368,-5.2065997,10.7505,15.5515995,-1.5009999,-7.6025996,-6.0097,jog
0.40191442,-1.8799115,-0.90392345,-4.1382,14.0885,17.410799,-1.5888,-7.6945996,-5.8683996,jog
-1.4737735,0.425616,-1.4684677,-3.4262998,15.1465,15.745199,-1.4279,-7.9877,-5.507,jog
-0.14552556,4.9056144,-2.08874,0.1173,12.151,11.321,-1.1077,-8.3362,-5.0446997,jog
-1.0773743,0.572084,-1.5293622,2.6238,7.5337,4.1681,-0.69189996,-8.7595,-4.3545,jog
-2.4401622,-2.927685,0.6522644,2.6891,2.398,-1.3974,-0.3453,-9.1254,-3.5744998,jog
3.022247,0.28825858,0.4259127,1.0624,-0.9884,-10.8517,-0.121,-9.3771,-2.8676999,jog
5.0261993,5.538436,-0.06874852,5.1906,-3.0272,-17.948,-0.022499999,-9.5252,-2.3321,jog
1.8331717,0.8576548,0.9316393,8.3897,1.9333999,-4.0984,0.063599996,-9.5433,-2.2561998,jog
2.7939055,0.22643901,1.7950362,4.2263,6.8087997,30.130499,0.3631,-9.4664,-2.5346,jog
4.3705487,1.3137442,1.1513588,-16.6076,-9.839499,-46.5284,1.0052,-9.4305,-2.4949,jog
4.112676,1.3159957,0.4991467,-17.2109,-15.314799,32.0243,1.3536,-9.3292,-2.7024,jog
3.3513987,2.2012093,0.33981562,-2.7359,3.8458,17.8374,1.059,-9.2002,-3.2254999,jog
2.6809478,3.1214516,0.4227362,4.2236,-1.2997999,16.1991,1.0031999,-9.3696995,-2.7149,jog
1.5697317,2.9159565,0.4899139,-5.9845,-18.4695,-6.789,1.2577,-9.5872,-1.6349,jog
-0.13451253,1.7689086,1.0382614,-0.3383,-17.3549,9.371799,1.1032,-9.6623,-1.2616999,jog
-1.2886639,0.7051654,0.7223918,4.8501997,-10.215199,10.070399,0.75909996,-9.750999,-0.71489996,jog
-1.2793962,2.274513,-0.11435397,4.8656,-8.215099,-4.5292997,0.5182,-9.7899,0.2438,jog
-1.0451032,2.4154832,-0.8102691,1.6237999,-13.2575,-5.5189,0.4159,-9.748799,0.97849995,jog
-1.5909374,-0.29941124,-1.1061373,0.065,-9.970799,-13.018,0.2782,-9.6522,1.711,jog
-2.361186,-2.0442517,-0.67804295,-3.1845999,-0.021499999,-13.2079,0.0955,-9.5595,2.1852,jog
-3.2882004,-1.9426038,-0.2576106,0.9478,8.289599,-14.1727,-0.1339,-9.486,2.4831998,jog
-3.6674604,-0.9430014,-0.08086111,11.431,11.742499,-13.8825,-0.4182,-9.486899,2.4479,jog
-3.540732,-0.15467107,0.27687904,16.5928,10.7653,-4.1373,-0.5884,-9.539499,2.1956,jog
-3.6316462,-0.3588048,-0.34095007,11.163099,9.054299,-4.5603,-0.6602,-9.593599,1.9223,jog
-3.0469782,0.38194785,-0.90367913,0.7093,6.7289996,-6.3492,-0.5916,-9.6416,1.691,jog
-4.073965,2.6768987,-0.14372787,-4.7604,5.7,-6.6032,-0.36839998,-9.701099,1.3860999,jog
-4.1764684,2.1202085,0.15145968,-2.9687998,4.5035,-4.4584,-0.18879999,-9.7598,0.9378,jog
-3.5376778,0.97000164,0.107948616,-3.2589998,3.7702,0.40579998,-0.1144,-9.8013,0.3002,jog
-3.0880284,-0.4341332,0.3230081,-4.3329,-1.4312999,1.1817,-0.099599995,-9.7972,-0.4168,jog
-2.6310315,-2.0103574,0.77672386,-0.41259998,-12.7441,-6.6484,-0.15609999,-9.742499,-1.1086,jog
-1.9610345,-2.988056,0.8242841,-7.2988997,-29.730099,0.2538,-0.095199995,-9.623899,-1.8816999,jog
-0.9054768,-1.7875313,0.5384166,-13.3925,-23.188799,-5.8212,0.0751,-9.5064,-2.4064999,jog
0.46172684,0.10281735,-0.032585297,-14.6965,-18.3954,-1.6807,0.2513,-9.2789,-3.1636999,jog
1.6826719,1.3814106,-0.28038713,-9.6705,-14.414599,-3.6961,0.37379998,-8.984,-3.9136999,jog
2.994025,3.151698,-0.59894466,-2.6627,-9.5248995,1.4029,0.4366,-8.686,-4.5313,jog
4.340756,3.2360325,-1.0412984,1.6018,-3.7287998,4.8072,0.3398,-8.392099,-5.0622,jog
4.787246,1.8039724,-0.9743824,1.8204999,0.713,9.1059,-0.0357,-8.0876,-5.5460997,jog
4.2978735,1.0758908,-0.8225562,-1.5308,9.2857,15.6214,-0.45979998,-7.8833,-5.8146996,jog
2.2965043,0.69493777,-0.68256336,-0.4421,12.693299,13.907599,-0.7542,-7.7703996,-5.9347997,jog
-0.5027595,1.6157037,-1.0950196,1.5509,14.0231,13.945,-0.737,-7.8252997,-5.8643,jog
-1.4955378,3.1821716,-1.7115222,1.5342,16.4656,15.363,-0.53389996,-8.0220995,-5.6152,jog
0.431969,5.520372,-1.6323541,4.0387,11.506,10.3519,-0.096499994,-8.3482,-5.1446,jog
-2.1790087,-3.1191127,-0.9892526,2.3576,8.3355,3.7343,0.4371,-8.7964,-4.3128,jog
-0.26616272,3.9233255,0.45944047,1.3571999,4.1521,-2.5293,0.72169995,-9.1241,-3.5212998,jog
3.8411903,4.2671556,0.36187658,2.3342,-0.8107,-20.916399,0.9411,-9.3783,-2.7077,jog
3.1426399,3.8937073,0.7248527,2.2138,-2.8005,-14.3089,1.1204,-9.4872,-2.2152,jog
2.5590017,0.54588664,1.5874468,2.2479,2.2586,-2.4766998,1.4001,-9.436999,-2.2697,jog
4.053684,0.55361843,0.56440455,-10.1399,-3.5421999,13.756599,1.8239,-9.3241,-2.4299,jog
3.9121904,0.6936113,0.17924531,-14.3236,-24.6167,7.8051,2.3790998,-9.275,-2.1172,jog
3.1012232,2.279243,0.41591197,-5.9227,4.0629997,28.596699,2.4119,-9.1233,-2.6678998,jog
2.9936411,2.4548755,0.4269948,-0.97249997,7.7886996,26.3526,2.5317,-9.1322,-2.5224,jog
1.6938595,2.7500803,0.8101469,-0.5388,-9.643,-0.1885,2.6471999,-9.3229,-1.4981999,jog
0.4457571,3.1953838,1.1056486,1.0725,-23.420599,5.5200996,2.6049,-9.4218,-0.7834,jog
-0.53780574,1.8633833,1.2951565,9.9485,-14.0777,6.4006996,2.3097,-9.5268,-0.2716,jog
-1.1040604,1.6773486,0.7644368,3.2812,-6.9624996,0.9343,2.2006,-9.542,0.5268,jog
-1.6236274,1.7829062,-0.089360856,-2.4382,-9.1838,-7.0776,2.1538,-9.4782,1.3015,jog
-1.5533081,1.3400289,-0.90990996,-7.4922,-13.5637,-12.759299,2.0004,-9.3935995,1.9818,jog
-2.0385969,0.33553955,-1.1526328,-6.4249,-7.3061,-16.349499,1.7863,-9.2572,2.6985998,jog
-2.8627763,-0.9037489,-0.6784793,-3.441,2.6523,-12.5054,1.5091,-9.193399,3.0616,jog
-3.7244627,-1.1528947,-0.17856464,3.5140998,10.2632,-8.1403,1.1047,-9.1943,3.2271,jog
-3.885225,-0.09129817,0.41456807,11.3056,10.8413,-8.712999,0.7467,-9.2526,3.1624,jog
-3.8867261,1.8783059,0.5999046,14.041599,9.477099,-6.9498,0.50159997,-9.33,2.9780998,jog
-3.6460974,0.02713987,-0.00015707963,10.0856,8.6072,-3.5235999,0.4172,-9.4212,2.6899998,jog
-3.5609953,2.170823,0.13533282,0.8224,5.8438,-7.3121,0.52099997,-9.4918995,2.4088,jog
-4.3545966,2.5214772,0.25520205,-6.5216,4.3409,-7.2709,0.7259,-9.5679,2.0242999,jog
-3.77129,1.2242262,-0.055169858,-9.0234995,3.8188999,-4.7169,0.90349996,-9.6637,1.4022,jog
-3.294658,-0.58021724,-0.07293731,-10.9890995,1.6908,0.14999999,0.9569,-9.7323,0.73249996,jog
-3.0557225,-1.850084,0.49000117,-6.5841,-4.7857,-2.042,0.8767,-9.7673,-0.027099999,jog
-2.525282,-3.2342522,0.74129367,-4.9431,-20.0019,-5.8013,0.7655,-9.7416,-0.8279,jog
-1.9040844,-3.6767454,0.5257455,-7.3364997,-30.462399,0.28779998,0.7661,-9.6663,-1.4646,jog
-0.64064056,-2.217947,0.22799236,-5.1327,-18.2216,-3.4261,0.8178,-9.5409,-2.1146,jog
0.614513,-0.3253992,0.36969563,-8.3686,-15.5131,-5.0594,0.89599997,-9.327,-2.8936,jog
2.1645572,2.3319345,0.5186246,-4.8785,-12.403999,-5.8785,0.9852,-9.0823,-3.5651999,jog
3.621698,4.5218515,0.55991906,-0.6886,-7.5607996,0.33229998,0.95339996,-8.826,-4.1667,jog
3.8959415,4.2987633,0.18448131,1.4896,-3.6067998,3.7540998,0.6775,-8.5338,-4.7837996,jog
3.3087952,2.9027793,-0.13819517,0.4511,1.3896999,10.127299,0.27449998,-8.3132,-5.1946,jog
2.3235743,1.9786099,-0.10800097,-4.2367,7.4133997,14.071199,-0.2056,-8.1096,-5.5099998,jog
0.53544956,0.5941101,-0.48122218,-3.9043999,12.498899,14.904599,-0.48889998,-8.0369,-5.5980997,jog
-1.07432,2.1102602,-1.2335464,-2.5632,16.407299,16.9006,-0.5846,-8.1011,-5.4954,jog
1.6384103,5.3638506,-1.7280331,1.8235999,14.975599,13.832299,-0.42119998,-8.3267,-5.1632,jog
-1.5259238,-0.43146285,-1.174816,4.8694997,10.0531,5.2423,-0.0446,-8.709499,-4.5067997,jog
-1.61984,0.089919366,0.50455725,3.7991998,3.768,0.078099996,0.2803,-9.0341,-3.8046,jog
2.39611,2.444194,0.7948404,1.7486999,0.093499996,-7.8904996,0.48709998,-9.2431,-3.24,jog
3.3418865,3.0695105,-0.12590805,3.1292999,-0.1697,-12.650499,0.6265,-9.3819,-2.7849998,jog
1.6718509,1.7358521,0.7359879,7.3803,3.3931,-1.9915999,0.74939996,-9.4045,-2.6763,jog
2.1981025,0.33822736,1.3088923,1.6488999,10.4797,30.0618,1.0968,-9.3225,-2.8385,jog
3.339827,0.4738569,0.96057683,-8.4376,-1.9963,-53.1628,1.7004,-9.3597,-2.3818998,jog
4.0528464,1.8084753,0.8176344,-13.6945,-18.7283,46.5268,1.8971,-9.2402,-2.6813,jog
3.8158307,1.7270381,0.5891882,-3.0253,-2.3260999,4.6335,1.8093,-9.1672,-2.9761999,jog
3.1565328,2.329875,0.60103905,3.7979,-0.3486,10.9133,1.7917999,-9.3403,-2.3913,jog
1.986621,3.7040772,0.31517157,0.3875,-9.1138,1.2324,1.9267999,-9.4598,-1.7227,jog
0.77550215,2.9844956,0.3922104,0.5722,-13.7225,2.5949,1.8400999,-9.538799,-1.3396,jog
-0.48624873,1.3413379,1.2717167,1.5462999,-10.9134,7.5414,1.5720999,-9.6412,-0.863,jog
-0.9865124,1.8325608,0.9823586,2.6109998,-6.1955,4.6621,1.4096,-9.701,-0.2687,jog
-1.3464866,2.0470967,0.24127431,0.088199995,-8.500199,-4.1361,1.2454,-9.7107,0.5665,jog
-1.5980933,0.76489055,-0.4790405,1.2322,-14.6684,-10.5046,1.0820999,-9.6421995,1.4236,jog
-1.9254822,0.19472638,-0.78021455,1.2609999,-9.812699,-14.298699,0.9061,-9.5553,2.0109,jog
-2.2868526,-0.48518407,-0.8930501,-5.7704997,-0.43289998,-16.4813,0.6809,-9.4717,2.448,jog
-2.6982093,-0.8410567,-0.83527964,-1.9128,6.8539,-12.3642,0.43199998,-9.433,2.6459,jog
-2.9809875,-0.6742556,-0.42716932,7.2805996,10.7864,-6.4634,0.15269999,-9.4626,2.5702,jog
-3.01921,0.59295815,0.2795145,10.7352,13.257899,-6.0414,-0.1244,-9.5117,2.3834999,jog
-3.4338655,1.1767359,-0.7158817,9.847199,11.7933,-5.6417,-0.2759,-9.577,2.0916998,jog
-3.1953661,1.0777931,-1.323745,6.5745997,7.1246996,-3.7143998,-0.2199,-9.6352,1.8118999,jog
-4.1676717,2.8801773,-0.5305277,1.8012999,4.9537,-4.1162,-0.0753,-9.7002,1.4389,jog
-4.3935347,2.1748896,-0.25654593,-4.62,4.4445,-4.2244,0.1285,-9.7597,0.949,jog
-4.068362,0.8622799,-0.059969515,-11.485499,4.0052,-3.3834999,0.2863,-9.7911,0.4709,jog
-3.6917205,-0.18856537,0.5422389,-7.4919996,-2.2927,-0.5001,0.3724,-9.7987995,-0.117599994,jog
-3.2945008,-1.685639,1.1201698,-0.0087,-17.192299,-9.249,0.3225,-9.7759,-0.7047,jog
-2.7257504,-3.0330856,1.096381,-9.5281,-31.861399,-1.0677,0.48639998,-9.6991,-1.3642,jog
-2.041721,-4.3412795,1.2975825,-10.0742,-15.2055,-5.2311997,0.7775,-9.5758,-1.9668,jog
-0.6420368,-3.6279984,1.1108322,-14.512899,-14.482599,-5.4206,1.0385,-9.3475,-2.7775998,jog
0.9019862,-2.015838,1.0507406,-15.2661,-14.3032,-7.3924,1.2034,-9.0953,-3.4635,jog
2.478612,-0.4374144,1.0445098,-6.0151,-10.6683,-2.8314998,1.2882999,-8.7487,-4.239,jog
3.2857394,1.0667453,0.69526935,2.1649,-5.5733,0.4904,1.1889,-8.4599,-4.8152,jog
3.0077782,2.1004338,0.42924628,0.9149,-3.6611998,1.6798999,0.83059996,-8.1459,-5.3966,jog
2.610454,2.3736477,-0.26911232,-0.22109999,1.416,8.0598,0.26029998,-7.8197,-5.9121,jog
2.1487446,1.8251257,-0.60644954,-1.8576,8.9127,11.5623,-0.46649998,-7.5692,-6.2176,jog
1.859404,0.842645,-0.76452404,-3.1432998,12.7483,10.6003,-1.0245,-7.4821,-6.256,jog
1.3151231,1.1646931,-1.169807,-0.20639999,13.5594,10.307099,-1.4311999,-7.5674996,-6.0706997,jog
1.3320178,4.9428596,-0.8694532,-1.2494999,11.092199,11.1771,-1.6434,-7.8265996,-5.6756,jog
-1.7558187,5.0510178,0.006038839,2.9234,8.4354,8.8331995,-1.6387,-8.1608,-5.1851,jog
-0.18833847,-2.309664,1.0183123,7.2451,5.3255,4.9715,-1.4886,-8.4735,-4.7068,jog
4.5768642,3.929347,1.0744421,5.3229,2.6818,-0.7374,-1.2531999,-8.6932,-4.3619,jog
3.5906484,5.2099648,0.5101772,3.3176,2.6207,-7.223,-0.9934,-8.8871,-4.0250998,jog
1.7450849,0.2713987,0.77150536,5.341,3.3128,-1.3564,-0.7711,-9.0595,-3.6743,jog
3.1881056,-0.8587718,1.7165313,2.0636,9.422299,14.9164,-0.5043,-9.157499,-3.4721,jog
4.5081854,-1.6511338,1.4257944,-8.8733,2.0633,-28.629099,-0.011399999,-9.251599,-3.2522,jog
5.2174697,-0.98225385,1.0462027,-16.9442,-8.1179,22.9959,0.3317,-9.1319,-3.5591,jog
4.564106,-0.75801396,0.6549522,3.9225,-4.6075997,21.4684,-0.0195,-9.1216,-3.6007,jog
3.6174219,0.18598229,0.6526833,15.110399,-7.0132,-2.8976,0.031,-9.4128,-2.7509,jog
2.3482008,1.0516831,0.84365726,7.0116997,-15.120999,2.3583,0.1961,-9.6015,-1.9856999,jog
1.412687,2.6696906,1.4028432,4.7241,-14.306399,1.9569999,0.0713,-9.6609,-1.6825,jog
0.5270196,2.9669027,2.0522978,2.6095998,-10.466599,9.0835,-0.2855,-9.7448,-1.0617,jog
-0.5726425,-0.13243559,1.652949,1.0149,-8.1589,3.7336,-0.6128,-9.7871,-0.0758,jog
-1.6462643,-1.1114432,0.5703736,-1.5733999,-14.4359,-7.7776,-0.7899,-9.7373,0.8541,jog
-1.152982,1.4311526,-0.7842288,-4.5359,-21.9504,-14.1656,-0.8969,-9.6073,1.7504,jog
-2.0158553,0.26940903,-0.9688148,-5.8615,-10.502999,-16.9984,-1.0423,-9.424,2.5040998,jog
-3.1428843,-2.3076394,-0.27844983,-7.2472997,1.3986,-11.2139,-1.2354,-9.2929,2.8781998,jog
-3.5815551,-3.179571,0.14798647,2.0944,7.5308,-7.1807,-1.6531,-9.1685,3.0619,jog
-4.293981,-1.9703546,0.35079372,14.927799,11.9696,-16.8316,-2.2085,-9.057,3.0433998,jog
-4.10306,-0.23287928,0.36203364,23.515,8.9742,-9.9481,-2.4993,-9.0135,2.9461,jog
-4.139537,1.3873447,0.07105235,17.1516,7.646,-0.537,-2.5397,-9.0778,2.7043,jog
-4.218129,-0.937905,-0.644393,2.7173,7.2341,-10.562799,-2.4624,-9.185599,2.3938,jog
-4.292079,-0.9090722,-1.1272732,-5.6412997,6.3854,-7.9796996,-2.3118,-9.307799,2.0467,jog
-4.757174,-0.070511304,-0.8470606,-4.5313,4.5206,-5.6405,-2.1763,-9.4338,1.5609,jog
-4.3247337,-0.66818184,-1.0598162,-0.81329995,2.544,-2.111,-2.1188,-9.5264,0.9636,jog
-3.554241,-2.895571,-1.7056404,0.5679,-0.56839997,1.6305,-2.1566,-9.5618,0.3013,jog
-3.0579913,-4.9779234,-2.0404992,4.9132,-9.0838995,-4.0285997,-2.2261999,-9.538899,-0.4725,jog
-2.4038246,-5.6897383,-1.977807,8.7534,-22.814,-5.3803997,-2.2123,-9.4498,-1.4057,jog
-1.2413131,-4.525953,-1.5826122,3.4468,-25.9417,1.5532,-2.1327,-9.3425,-2.0828,jog
0.6986029,-2.098933,-1.5348077,-1.9834,-22.5961,-1.7779,-1.9685999,-9.1772995,-2.8409,jog
2.7411444,0.35615188,-1.1950618,-1.5092,-18.171299,-3.6109998,-1.8054,-8.8654995,-3.7831,jog
4.5085173,3.1954186,-0.828246,4.4735,-12.946899,-1.2954,-1.6883999,-8.5786,-4.4414,jog
5.0832887,3.412206,-0.22753857,5.232,-7.9965,5.4054,-1.6722,-8.3021,-4.9445,jog
3.998497,2.4747548,0.22994713,2.1706998,-1.7211,12.871699,-1.8666999,-8.0364,-5.3009,jog
2.0927196,1.2034569,0.20399408,-3.1813,8.689,16.8456,-2.1338,-7.8750997,-5.4405,jog
-0.3972893,-1.0937629,-0.058014743,-3.5748,16.1667,18.7093,-2.3778,-7.8114996,-5.4309998,jog
-1.7323614,-1.5471646,-0.6639756,-5.2897997,18.1183,19.3822,-2.3593,-7.9585996,-5.2214,jog
-1.3427341,2.2394495,-0.96043724,-3.372,14.818,16.2265,-2.1294,-8.286799,-4.792,jog
1.5876737,6.750916,-0.747158,-1.3195,7.6734,6.1579,-1.6616,-8.7619,-4.0789,jog
-2.9820173,-4.454342,-0.52927107,0.48709998,4.4944997,-2.2695,-1.3697,-9.1428995,-3.2712,jog
-3.7170975,1.1231369,2.605602,0.47149998,1.5156,-11.2513,-1.2757,-9.3511,-2.6641998,jog
5.4196663,0.49958304,0.14332643,1.9700999,-3.3476999,-18.4202,-1.2542,-9.4499,-2.3012,jog
3.397964,2.073451,-1.8400134,5.1776,-1.5112,-8.2133,-1.2940999,-9.432899,-2.3483,jog
2.2006333,-0.9710139,0.69022536,6.895,8.1572,11.107699,-1.2464,-9.3633995,-2.6346998,jog
4.1567984,-1.4595141,1.1242539,3.1862998,14.814799,35.060898,-0.9112,-9.3035,-2.9636998,jog
5.105158,-1.6656201,1.1069052,-10.7632,-9.9537,-70.859795,-0.4359,-9.3947,-2.7782,jog
5.0080304,-0.63536966,0.22544418,-5.4135,-23.074,61.0779,-0.6077,-9.2192,-3.2872999,jog
3.7415147,0.49125782,0.1404641,16.108799,0.5068,25.4559,-1.036,-8.871799,-4.048,jog
2.9388902,1.0863802,0.85763735,6.95,-2.3206,-11.781,-1.0267999,-9.2217,-3.174,jog
2.1302443,1.6021075,1.624151,-4.8591,-17.3845,10.2705,-0.5638,-9.4464,-2.5723,jog
0.83308053,2.479118,2.4095142,0.97609997,-16.8288,3.8481,-0.7407,-9.5411,-2.1417,jog
-0.07843509,0.49953067,1.950964,2.5862,-12.1739,6.4951997,-1.0073,-9.6654,-1.3173,jog
-1.6535947,-0.63568383,0.76742125,4.1026,-11.5285,-3.3787,-1.2488999,-9.7225,-0.2889,jog
-1.7730974,1.5769747,-0.65167105,-5.0449,-17.7918,-11.9683,-1.2901,-9.696099,0.7005,jog
-2.0795074,-0.66441196,-1.1498054,-8.3123,-10.117499,-13.060699,-1.3276,-9.6133995,1.4103999,jog
-3.2073915,-2.9334273,-0.46090654,-8.4846,-0.7673,-12.0515995,-1.5279,-9.490399,1.941,jog
-3.5360894,-3.497954,0.013910274,1.2544,3.6273,-6.0727,-1.9016999,-9.3446,2.2874,jog
-3.924373,-2.5897195,0.13526301,14.3195,9.142,-16.4258,-2.4633,-9.2008,2.3337,jog
-3.6353288,-0.73706996,0.4089132,23.3394,8.5713,-13.9627,-2.8435,-9.1009,2.2928,jog
-3.6531312,1.1925834,0.8200255,19.7564,8.767099,-0.7759,-2.9673998,-9.13,2.0017,jog
-4.219508,-1.0315769,0.10477211,6.1278,8.496699,-6.4698,-2.9111998,-9.2224,1.6254,jog
-3.3685203,-0.23987806,-1.5058352,-4.245,6.7777,-6.4051,-2.6784,-9.347,1.2763,jog
-3.788778,-0.21087068,-1.5190125,-4.1028,6.249,-3.3694,-2.5166,-9.446,0.7804,jog
-3.8231263,-1.7867982,-1.2435122,-1.7917999,3.4008,-0.9726,-2.4838,-9.4809,0.33519998,jog
-2.89873,-2.7079482,-1.6736486,-2.964,0.77779996,2.4078999,-2.508,-9.476299,-0.27989998,jog
-2.1599498,-3.4612846,-1.7672855,2.2012,-8.3672,-1.9382999,-2.6032,-9.4024,-0.9938,jog
-1.5196582,-4.5352206,-1.696076,12.6173,-25.7144,-3.7774,-2.7126,-9.2757,-1.6652,jog
-0.41570252,-3.7934906,-1.7535497,1.4692999,-28.519299,5.3657,-2.7735999,-9.0989,-2.3844,jog
0.74848443,-2.444613,-1.5251559,-2.9053,-19.209,-5.118,-2.4882,-8.985,-3.041,jog
2.1532128,-0.4537856,-1.2825029,-1.2533,-13.958799,1.1388,-2.2573,-8.822,-3.6395,jog
3.5733347,1.4357078,-0.8045095,3.623,-8.5166,2.1957998,-2.1814,-8.5763,-4.2258,jog
3.9862447,2.2820354,-0.2377313,1.803,-5.5916,4.7873,-2.1364,-8.3926,-4.601,jog
3.1287296,2.0217197,0.08895943,2.3246999,-2.5219998,9.6466,-2.1678,-8.2653,-4.8118997,jog
1.2561483,0.49689522,-0.2944545,-0.44779998,3.958,13.2332,-2.3274,-8.1945,-4.8582997,jog
-0.7021285,-0.6806784,-0.73890257,-1.9433,11.4978,13.5616,-2.4106998,-8.242,-4.7356997,jog
-1.3803809,-0.7881558,-0.96490526,-3.2131999,17.108,15.570299,-2.3862998,-8.3702,-4.5182,jog
-1.3633465,2.827538,-0.7746295,-2.8035,16.6373,10.8491,-2.2075999,-8.615399,-4.1315,jog
1.3815851,4.7039413,-0.98775166,-1.849,10.198899,3.2308998,-1.9559,-8.9241,-3.5642998,jog
-2.3624253,-5.203961,-1.0761526,0.4014,5.8282,-4.4969,-1.7645999,-9.191899,-2.9266,jog
-0.53366935,2.7598717,0.98543036,1.2023,0.7948,-13.5789995,-1.673,-9.356,-2.4155998,jog
4.1231484,-0.9611179,-0.5792573,-0.31739998,-2.0109,-11.1018,-1.5948,-9.4236,-2.1959,jog
3.34522,1.6366302,-0.51504666,1.0253,1.1477,-6.401,-1.4862,-9.4147,-2.3072999,jog
2.153422,-1.464401,1.58811,7.4821,9.590799,14.9106,-1.3431,-9.375,-2.5444,jog
4.0057926,-1.070742,1.0390294,1.8283999,9.1468,24.2374,-1.0145,-9.313499,-2.8982,jog
4.2301545,-0.64957666,0.107791536,-0.5183,-17.6094,-9.474999,-0.6094,-9.398,-2.7342,jog
3.373739,0.29258698,-0.27689648,3.8506,-8.4268,32.6642,-0.7125,-9.274099,-3.1069,jog
3.1587143,0.5216789,0.099815376,4.9168,1.3317,21.112999,-0.7195,-9.226,-3.2452,jog
2.3431046,0.4595103,0.9936683,-2.521,-7.1527,-1.1579,-0.666,-9.4695,-2.4606,jog
1.246008,1.4744192,1.468712,-6.5537,-16.211199,6.3322997,-0.49719998,-9.6194,-1.8407999,jog
0.6549348,1.8933681,1.270687,3.5238998,-14.257,6.7844996,-0.88589996,-9.6711,-1.3614,jog
-0.25343925,-0.22113322,0.66940355,6.9609,-14.615,-4.7409997,-1.0867,-9.724999,-0.6428,jog
-1.477526,-0.58204985,-0.19291124,3.2208,-15.4244995,-5.3492,-1.1123999,-9.7393,0.2792,jog
-1.6300154,0.6263812,-1.1117747,-3.5029,-12.247,-12.583099,-1.0669,-9.71,0.8642,jog
-2.371431,-0.33412582,-1.5012624,-5.9721,-5.3501997,-14.0068,-1.0984,-9.6343,1.4641,jog
-3.3180804,-2.5477793,-0.67490137,-1.6365,1.0174999,-9.192699,-1.3249999,-9.519899,1.9455999,jog
-4.213591,-2.4072802,-0.4904375,5.4737997,6.2676997,-5.3454,-1.6295999,-9.4352,2.119,jog
-4.3560452,-1.3540264,-0.37074283,11.0602,10.2344,-15.207399,-1.9497999,-9.3616,2.1743,jog
-3.8497949,0.6614623,0.37634534,16.4812,8.1395,-10.5891,-2.0655,-9.345699,2.1357,jog
-4.050438,2.013883,0.7356039,14.764299,8.5401,-3.9415998,-2.0059,-9.4129,1.8822,jog
-4.183659,-1.0411413,0.32758084,2.4445999,7.8638997,-9.9932995,-1.8168999,-9.5114,1.5496999,jog
-3.92357,0.5824862,-0.25958282,-5.197,4.8093,-6.8873997,-1.4909999,-9.6342,1.0623,jog
-4.0013595,1.0361322,-0.68308693,-4.3022,3.0016,-0.7456,-1.3366,-9.6995,0.5495,jog
-3.5231216,-1.166997,-1.3893344,-7.4164,2.4893,-0.36089998,-1.2329999,-9.7266,-0.2078,jog
-2.892796,-2.8476093,-1.5284371,-8.4426,-0.18349999,1.0996,-1.1776,-9.6819,-1.0212,jog
-2.3759692,-4.278849,-1.5579332,0.37829998,-10.3228,-6.1942,-1.2314999,-9.565,-1.7785,jog
-1.651099,-4.5629363,-0.9662143,5.9997,-25.8464,-4.0129,-1.2827,-9.3691,-2.5967,jog
-0.374984,-3.0427895,-0.58395225,1.3397,-25.8095,1.7876999,-1.4181,-9.0824995,-3.4155998,jog
1.1324918,-1.6353385,-0.44589671,-1.242,-17.0843,-2.6548,-1.3370999,-8.824699,-4.0627,jog
2.442693,-0.36623988,-0.33409092,-2.2758,-14.126599,-3.7405,-1.127,-8.4875,-4.7813997,jog
3.7683055,2.3800182,-0.153397,1.9749,-9.099299,1.2441,-1.0138,-8.1603,-5.3433,jog
4.765499,3.691441,-0.21088813,3.2714999,-3.9847999,6.6791997,-1.0846,-7.8714,-5.7475,jog
4.6686163,2.9160438,-0.29736918,-0.0655,3.4912,12.1314,-1.3464999,-7.6295996,-6.0120997,jog
3.6536548,1.8924081,0.106395274,-3.9134998,9.469399,14.6222,-1.7545999,-7.4591,-6.1197996,jog
1.9231783,0.34730306,0.15547393,-1.9233999,11.554299,13.8566,-2.0384,-7.4354997,-6.0603,jog
-0.5025152,-1.584375,-0.43863615,-0.3545,12.364599,13.5785,-2.1657,-7.5888,-5.8213997,jog
-2.1307678,-0.16423549,-0.9188286,-3.4847999,14.3489,17.067299,-2.1539,-7.9059,-5.3876,jog
-0.52307516,7.3237505,-0.7158119,1.7437999,11.939,10.613999,-1.9104999,-8.261499,-4.9261,jog
-3.6807249,-2.3103971,-0.38210493,2.4968,6.6077,3.2043998,-1.5357,-8.7063,-4.2439,jog
-1.5211242,1.0961192,1.7216277,0.46249998,0.6915,-2.7229,-1.2569,-9.0762,-3.4945,jog
5.252115,2.3015134,-0.060196407,2.2445,-2.5891,-11.8417,-1.156,-9.3063,-2.8681998,jog
2.9596944,3.016051,-1.5289782,3.2846,-4.1759,-17.3322,-1.1662999,-9.406199,-2.5163999,jog
2.1895854,-0.79885465,0.95221674,5.1166,2.84,-7.6836996,-1.1645,-9.3907995,-2.5739,jog
4.0952578,-1.8564718,1.0063918,1.6492,2.3593,38.6942,-1.0019,-9.2926,-2.9686,jog
4.709387,-1.9115545,0.61894614,-15.7625,-19.9041,-13.1774,-0.4184,-9.270599,-3.1701999,jog
4.4657216,-0.46054003,0.0011693706,-5.9315996,2.5161998,31.4723,-0.5211,-8.9886,-3.8862,jog
3.5402257,0.9536479,0.26282912,18.2037,8.6339,35.484898,-0.7184,-8.8595,-4.1428,jog
2.6008723,1.7903762,0.90647167,13.5807,-8.4242,-6.7044997,-0.5379,-9.2473,-3.2196999,jog
1.0994004,1.2717167,2.0241282,-2.9717999,-27.9844,8.5429,-0.0289,-9.4474,-2.6295,jog
0.36438984,1.5208101,2.4530602,3.2668998,-15.857599,3.4792,-0.2268,-9.5415,-2.2533998,jog
-0.059969515,1.376611,1.7868332,1.8033999,-7.6127,6.532,-0.48929998,-9.6861,-1.4520999,jog
-1.1662989,-0.0832173,0.65393996,-0.6134,-9.8379,-4.2785997,-0.6613,-9.7753,-0.41869998,jog
-1.5704298,0.23944172,-0.3778638,-7.3403997,-15.6416,-12.6901,-0.6617,-9.7771,0.373,jog
-1.8173765,-0.50745445,-0.6265034,-9.6318,-8.9077,-17.387,-0.7337,-9.715,1.1178,jog
-2.639252,-2.1128259,-0.24661502,-6.9793,-2.1582,-12.4196,-0.9346,-9.6391,1.5439999,jog
-2.9595025,-2.409235,0.112416655,6.4544997,4.9572,-3.187,-1.3648,-9.5566,1.7257999,jog
-3.259891,-1.7707762,0.37763688,12.4782,11.2383995,-9.4646,-1.936,-9.4535,1.7468,jog
-3.231128,-0.40153044,0.8036194,16.795399,11.221399,-13.0601,-2.2816,-9.3876,1.6844,jog
-3.5992355,0.4834911,0.55122733,14.7484,9.7369995,-1.4692,-2.4018,-9.3937,1.4692,jog
-3.1833932,-0.6517932,-1.0508802,4.8375998,9.1293,-2.878,-2.3369,-9.453,1.1618,jog
-2.7764523,1.041211,-2.080258,-3.1269,7.0564,-5.3217,-2.2078,-9.517799,0.84,jog
-3.5293872,0.35800195,-1.4447137,-4.3677998,4.8743997,-2.5953,-2.1339,-9.561999,0.428,jog
-2.8606644,-1.9956094,-1.2936032,-3.4020998,3.7624998,-1.3894,-2.1483998,-9.568,-0.0815,jog
-2.2521904,-3.116844,-1.5485259,-1.6791999,1.2472999,2.1708999,-2.2238,-9.533999,-0.5725,jog
-1.7951933,-2.6106634,-1.9079765,8.031899,-8.4073,-2.0981998,-2.3832998,-9.4407,-1.1673,jog
-1.0940248,-3.376095,-1.6859705,12.465,-23.8221,0.3066,-2.472,-9.3047,-1.8657999,jog
-0.81712824,-4.053492,-1.0241592,-0.4111,-26.958399,1.189,-2.3051999,-9.2183,-2.4246,jog
-0.17842501,-3.6049776,-1.1192796,-7.3026,-18.499699,-3.5918999,-1.8664999,-9.155,-2.9784,jog
0.79578286,-2.0185082,-0.7161784,-4.4786997,-15.5566,0.8415,-1.5523,-8.9501,-3.6952,jog
1.9590448,0.13339551,-0.17366026,2.4468,-10.622499,0.6749,-1.4857999,-8.7848,-4.0975,jog
2.6167023,0.5855754,0.33885568,4.9915,-6.5413,4.1229997,-1.4807,-8.639299,-4.3975997,jog
2.4110677,0.11604694,0.77960366,0.0648,-2.9614,7.9556,-1.3887,-8.531899,-4.6310997,jog
1.4030527,-0.6998421,0.7496538,0.3292,4.3482,11.1753,-1.4178,-8.4768,-4.7225,jog
-0.373675,-1.512834,0.3175103,-1.4607999,10.9902,15.3284,-1.6281999,-8.430699,-4.7372,jog
-1.8112154,-2.3815367,-0.038414698,-3.6309,17.555,15.4024,-1.7919999,-8.4544,-4.6347,jog
-2.6561468,-0.9938254,-0.070092425,-3.4283998,16.2019,12.194099,-1.8475,-8.5429,-4.4467998,jog
-0.82194537,4.4901037,-0.36337754,-1.9693999,9.707399,6.3985,-1.8061,-8.717,-4.1136,jog
-1.9492011,-4.0311,0.046652652,-0.1999,5.0839,0.4667,-1.8202,-8.9085,-3.6734998,jog
-4.3513327,2.0680406,4.134266,1.8932999,1.6125,-6.3655,-1.9521999,-9.045899,-3.2449,jog
0.15357152,0.34306192,0.17748253,0.8078,-0.7924,-13.0721,-2.1317,-9.1024,-2.9617,jog
1.4550636,4.1293964,-1.4067179,0.60209996,1.064,-12.6491995,-2.279,-9.066199,-2.9629,jog
0.8575501,-0.6711838,-1.8763162,3.5265,5.8087997,0.90239996,-2.4184,-8.9567995,-3.1775,jog
2.2860496,-3.451441,0.4116708,5.4642997,11.712299,32.4906,-2.4733,-8.7801,-3.6002,jog
2.246361,-3.976122,0.2950479,-26.505999,-17.3216,-65.5806,-2.0704,-8.7345,-3.9483998,jog
2.8972988,-3.296508,-0.45682248,2.4819,-29.5136,77.7536,-2.4034,-8.5753,-4.1056,jog
3.312443,-3.5036786,-1.3553005,28.5943,6.6672997,23.264599,-2.9008,-7.9617996,-4.936,jog
3.0256853,-3.0133634,-1.0271437,28.2939,5.2212996,4.5878,-2.8946998,-7.9670997,-4.9309998,jog
2.3588822,-2.5140595,-0.3695211,0.2845,-13.0494995,13.7102995,-2.3243,-8.1622,-4.9137,jog
1.4836695,-2.1017952,0.5108055,-4.7750998,-19.1701,-1.6804999,-2.0795999,-8.3277,-4.7427998,jog
0.7421489,-1.3685476,1.1314446,3.6509,-14.8287,7.0278997,-2.4937,-8.5306,-4.1447997,jog
0.21626374,-0.7783645,1.174851,7.6418,-8.4293995,2.8906999,-2.817,-8.6733,-3.6065998,jog
-0.29939377,-0.35002577,0.82655305,3.6488998,-6.8808,-0.36069998,-2.9624,-8.9078,-2.8360999,jog
-1.0704104,-1.3305691,0.44724062,-3.2012,-8.7112,-6.1046996,-2.8983998,-9.127,-2.1132,jog
-1.7572674,-1.2468108,0.024836035,-7.5706,-6.1734,-7.9231,-2.8146,-9.2916,-1.3833,jog
-1.9996238,-1.1912396,-0.24706881,-8.0553,-0.6584,-6.3863997,-2.8005998,-9.3639,-0.80179995,jog
-2.4593434,-1.8056653,-0.055152405,-0.97999996,4.9181,-6.1576,-2.9327,-9.350699,-0.3637,jog
-3.0667355,-2.7290142,0.48265335,6.2966,7.4684997,-3.3462,-3.1290998,-9.2925,-0.1645,jog
-3.215263,-2.254686,0.9746966,9.153999,7.7949996,-4.7507,-3.3483999,-9.2169,-0.074,jog
-3.2178636,-0.47650978,1.2986472,10.2381,8.846,-6.1024,-3.5009,-9.1598,-0.1051,jog
-3.8860977,-1.9390085,-0.060929444,9.539499,7.3988,-1.9999,-3.5869,-9.1247,-0.2065,jog
-2.9132686,-0.068050385,-2.5125237,4.2679,6.5306997,1.0587,-3.6009998,-9.1098995,-0.4605,jog
-2.1673672,1.5473042,-2.4486446,-1.8400999,7.7023997,-0.0436,-3.5730999,-9.1047,-0.7114,jog
-3.1442106,-1.1643265,-2.434682,-4.8293,6.8887997,-1.7658,-3.5944998,-9.0659,-1.0289999,jog
-2.7478638,-2.9440038,-3.146078,-1.9698,3.6216,1.4109,-3.7473,-8.9564,-1.3815,jog
-2.5660179,-3.8868308,-3.6892595,8.2238,-5.1359,0.6685,-4.0168,-8.76,-1.8159,jog
-1.9554495,-3.850074,-2.933113,21.1335,-20.6299,-4.0826,-4.2367,-8.5448,-2.2818,jog
-1.4583273,-5.2102966,-3.3264928,9.4141,-30.482399,9.6855,-4.3342,-8.3322,-2.8209,jog
-1.9170173,-5.97222,-2.7864704,0.9399,-15.1851,-3.7384,-3.9603,-8.360499,-3.2536,jog
-1.8678863,-5.202879,-1.997826,6.0601997,-11.3405,-3.1429,-3.4419,-8.3904,-3.7314,jog
-0.51309186,-3.8836544,-1.860329,11.443399,-14.194799,-0.017099999,-3.1274,-8.301499,-4.18,jog
1.0006845,-2.35595,-1.7473015,7.0775,-18.323399,3.3604999,-2.8607,-8.2525,-4.4589,jog
2.0240235,-0.6398203,-1.2820491,-4.061,-16.0122,8.082,-2.6074,-8.22,-4.6693,jog
2.602862,0.3985285,-0.93020815,0.8418,-9.0892,8.0037,-2.4795,-8.1802,-4.8068,jog
2.8471034,0.28682742,-0.5614375,0.8994,-0.3105,8.7628,-2.439,-8.2015,-4.7911,jog
2.5976608,-0.61384976,-0.12815952,-0.49319997,7.6565,11.9946995,-2.5565999,-8.1567,-4.8064,jog
1.7264796,-1.7167058,0.093322754,-1.5432,11.478,13.9073,-2.7519999,-8.0751,-4.8361,jog
0.12543681,-2.8267004,-0.1743933,-2.9613,10.3013,14.052199,-2.8147,-8.1242,-4.7163,jog
-2.7936263,-3.63957,-0.22830652,-2.4041,10.4985,12.1875,-2.7344,-8.3312,-4.3912,jog
-3.2010386,1.2625712,0.17170548,-1.5275999,9.6089,9.085199,-2.5714998,-8.5694,-4.0151,jog
0.22235495,0.19041543,-0.27419123,-0.8373,7.2503996,3.9008,-2.3987,-8.7901,-3.6262,jog
-3.8759224,-2.0222082,1.6840856,0.119799994,4.7632,-0.51629996,-2.2675,-9.029099,-3.0827,jog
-0.3055897,0.53784066,0.90968305,1.1013,3.9018,-4.7523,-2.2781,-9.168,-2.6320999,jog
0.59822905,-0.39428732,0.2027898,2.5063,3.8834,-11.946199,-2.3788,-9.2477,-2.2340999,jog
-0.43149775,-2.1163514,-0.5933596,3.6450999,2.6028,-23.266499,-2.4682999,-9.261499,-2.0737998,jog
2.0069542,-3.507536,-0.7136651,0.55939996,7.4121,11.5637,-2.5894,-9.1479,-2.4043,jog
1.641936,-2.9096384,-0.48019242,-6.6664996,-8.0893,-41.325798,-2.5516,-8.964399,-3.0491998,jog
2.4887521,-3.3373663,-0.7528652,-10.4599,-36.5672,31.690498,-2.4847,-8.9944,-3.0158,jog
2.9386282,-2.2737625,-0.88174033,15.846299,2.7711,10.2627,-2.8720999,-8.6845,-3.5354,jog
2.4462185,-1.7610197,-0.3750538,18.8091,4.1767,18.8985,-2.991,-8.6093,-3.6197999,jog
1.9940038,-2.5695958,0.2898119,10.977799,-11.1403,-6.1078997,-3.054,-8.6396,-3.4926999,jog
1.5345284,-2.635203,0.7993608,-0.3985,-18.184,9.894,-3.1023998,-8.6469,-3.4313998,jog
1.0984927,-1.1209203,0.96871006,-0.3787,-11.9585,2.9566,-3.1908,-8.8021,-2.9174,jog
0.5337915,-1.0471277,0.7042927,2.2809,-5.2788997,6.9985,-3.2615,-8.9211,-2.4384,jog
-0.12815952,-1.8967714,0.3510206,-0.56769997,-8.1453,-1.0224999,-3.2666,-9.0751,-1.7723,jog
-1.2284151,-2.7506213,-0.10471976,-3.3019998,-10.9758,-4.9526997,-3.1703,-9.216,-1.0881,jog
-2.6270173,-2.190231,-0.508397,-3.7745,-7.7549996,-8.6446,-3.1292999,-9.279099,-0.5245,jog
-2.8027718,-1.2906884,-0.9626014,-1.2897999,-2.5969,-7.9754,-3.2015,-9.2691,0.0614,jog
-2.44662,-1.2650496,-1.1386528,3.7338,2.1344,-7.7479997,-3.3219,-9.2148,0.47149998,jog
-2.6002438,-2.6575954,-1.0173349,8.0461,5.7325,-7.5257998,-3.4859998,-9.1354,0.74939996,jog
-3.272091,-3.9448805,-0.44650757,11.8343,9.2139,-9.0015,-3.5967999,-9.0766,0.9208,jog
-3.799442,-3.9079318,-0.040544,14.273299,8.485,-12.5866995,-3.6232998,-9.0538,1.0345,jog
-4.194934,-2.5569773,-0.78126174,15.286599,7.1348996,-5.7651,-3.5481,-9.0864,1.0088999,jog
-3.5527225,-1.0074738,-2.4473007,9.995999,6.5744996,2.6462998,-3.4059,-9.1732,0.6486,jog
-3.3545227,-0.03387684,-2.537255,0.9899,6.1352,2.2398,-3.2356,-9.253699,0.2608,jog
-3.9315112,-1.7449278,-2.166896,-4.8623,5.8865,-1.1797,-3.0221,-9.3286,-0.1147,jog
-3.6521015,-2.825496,-1.9213283,-3.5735998,3.7480998,-2.2473,-2.83,-9.3771,-0.4788,jog
-3.1881754,-2.9666932,-2.0752664,4.3603997,-3.2403,-1.9246,-2.8012,-9.361199,-0.831,jog
-2.696394,-4.299147,-2.033012,14.5966,-15.234799,-1.5651,-2.8776,-9.281799,-1.3179,jog
-2.695312,-6.299155,-1.7619797,10.55,-24.734299,4.8052,-2.8125,-9.177,-2.0103,jog
-2.1134715,-5.128493,-1.2261287,1.3517,-20.488499,-4.963,-2.45,-9.1470995,-2.5488,jog
-0.5309466,-2.6245215,-0.9521295,-2.5279999,-16.2442,-4.1649,-1.9437,-9.0568,-3.2194,jog
1.1464021,-0.6796661,-0.8653342,0.94879997,-14.0679,-2.8615,-1.7039,-8.8796,-3.7970998,jog
2.518737,0.8884424,-0.460924,2.1659,-12.4289,0.26479998,-1.5970999,-8.6455,-4.3444,jog
3.3528996,2.45786,-0.31520647,-0.29999998,-9.6159,3.0214999,-1.5141,-8.4185,-4.7964997,jog
3.432958,3.1231794,-0.582364,0.4252,-3.4652,8.0827,-1.602,-8.214399,-5.1113,jog
2.9461508,2.81005,-0.75103265,-1.7034,4.8262,14.2752,-2.0132,-7.9740996,-5.3413,jog
1.4293374,1.3378123,-0.7852062,-6.4006996,11.347199,14.237599,-2.3369,-7.8167996,-5.441,jog
-1.4086204,-1.7158506,-0.9555154,-5.6176996,12.4044,12.5272,-2.4726999,-7.8051,-5.3977,jog
0.17655751,2.5420372,-1.4900225,-4.0151997,11.0773,12.4505,-2.4081,-7.9686,-5.1837,jog
3.8903215,6.0809193,-1.8328401,-1.2333,11.3377,9.5549,-2.2282999,-8.2682,-4.7791,jog
0.66547656,-6.1043763,-2.136981,1.9782,10.0272,4.786,-1.9782,-8.5562,-4.3643,jog
0.20614083,5.1061177,0.36678094,2.5261,5.2896,-0.39909998,-1.5847,-8.8887,-3.8274999,jog
3.0476067,0.4442212,1.7293769,1.4365,1.9415,-11.0125,-1.2795,-9.1004,-3.4227998,jog
2.4857502,2.2168822,1.3325763,4.4305,-1.4268999,-21.432299,-1.0472,-9.2132,-3.1920998,jog
3.3116925,-0.7319038,1.5046134,10.6153,7.1193,33.0319,-0.9852,-9.1395,-3.4157999,jog
4.0805798,0.792554,1.4221815,3.3277,18.189299,28.016699,-0.49359998,-9.177,-3.4215999,jog
4.4422994,-0.093793996,0.38728857,2.6804,0.241,-72.2221,0.1537,-9.4004,-2.7889,jog
3.8829212,1.1910475,-0.55913365,-14.9907,-30.2095,61.4871,0.2219,-9.4289,-2.6864,jog
2.4616473,2.0409706,-0.19626227,-11.750199,-19.1539,-15.056999,0.4235,-9.4422,-2.6145,jog
1.9515399,1.312732,0.50316095,0.90489995,-1.8413,6.6997,0.1149,-9.5931,-2.0317,jog
1.4733196,2.3883958,1.1428591,9.9279995,-7.2922997,10.5243,-0.0625,-9.682899,-1.5511999,jog
0.44813073,2.140018,1.5298684,10.9165,-16.5096,7.468,-0.40379998,-9.7623,-0.8387,jog
-0.46530476,-0.7774918,0.72548103,9.610499,-13.6044,1.7558999,-0.6472,-9.7844,-0.12799999,jog
-1.3390864,-0.26816985,-0.21649064,2.2619998,-14.8628,-8.7634,-0.7223,-9.7518,0.7416,jog
-1.2933937,1.5651764,-1.1444647,-4.9764,-15.874399,-15.7634,-0.6329,-9.662,1.5536,jog
-2.2932405,0.40276963,-1.0793465,-6.1031,-7.1631,-15.391399,-0.6634,-9.5865,1.9562999,jog
-3.2413905,-2.3010945,-0.25464353,-3.9406998,2.337,-9.9095,-0.8154,-9.4958,2.3093998,jog
-3.8938122,-2.060047,0.1691224,4.633,9.2937,-7.0348997,-1.181,-9.3917,2.5630999,jog
-4.184636,-0.57602847,0.4737347,15.3066,10.9614,-14.913199,-1.5381,-9.3335,2.5862,jog
-4.2543797,0.9939999,0.6054198,17.8638,6.9905,-7.6136,-1.6337999,-9.3343,2.524,jog
-4.190815,0.6512347,-0.1678134,11.450299,8.4611,-3.5419998,-1.5749999,-9.412399,2.2573,jog
-3.3453076,-0.5402492,-0.72003555,-2.4138,7.9533,-11.3894,-1.4401,-9.493,1.9947,jog
-3.8933408,0.45121998,-0.8361523,-8.4307995,5.5923,-6.8413997,-1.2481999,-9.6032,1.5458,jog
-4.3193755,-0.9225636,-0.70610785,-5.4783998,3.2285,-3.0835,-1.1409999,-9.6911,0.97499996,jog
-3.720204,-1.8752515,-0.7630405,-3.4117,2.5570998,-1.0989,-1.1482999,-9.735499,0.2653,jog
-3.0586896,-2.8287075,-0.65235174,1.6441,-2.7905,-0.6611,-1.242,-9.7129,-0.5352,jog
-2.3192809,-4.125417,-0.8699419,6.8405,-14.9147,-4.7197,-1.3488,-9.6018,-1.4682,jog
-1.5689812,-4.1359243,-0.73839647,4.5738997,-25.159899,1.7914,-1.2983999,-9.467199,-2.2033,jog
-0.44856706,-2.2348766,-0.6947283,-1.0848,-20.1028,-2.0846999,-1.1902,-9.3171,-2.8185,jog
0.9013578,-0.7630754,-0.7465297,-5.4452,-18.9986,-1.1322,-1.0074999,-9.0876,-3.5454,jog
2.3420923,1.0779153,-0.61250585,-1.7330999,-14.1165,-2.5461,-0.95379996,-8.7624,-4.2989,jog
3.6155543,2.9508805,-0.5794144,3.6919,-7.8932996,0.5679,-0.99509996,-8.4347,-4.9024997,jog
4.1678114,3.3915586,-0.783967,5.041,-3.4580998,6.5874996,-1.1968,-8.1039,-5.3911,jog
3.7497876,2.783486,-0.80173445,-0.9217,2.5109,12.6866,-1.4807999,-7.8946996,-5.6257997,jog
2.7746022,1.7393253,-0.56175166,-3.4829,10.1282,15.1672,-1.8714,-7.7256,-5.743,jog
0.9055292,-0.59609973,-0.59124774,-2.0785,12.9183,14.482599,-2.0205998,-7.7011,-5.7251997,jog
-0.40013418,-0.11911872,-0.8505513,-1.7161,14.5405,16.1458,-1.9907,-7.8328,-5.5546,jog
-1.1323696,5.2912974,-1.2160931,0.109699994,13.619599,12.851399,-1.7767999,-8.1083,-5.2218,jog
2.2272322,6.287915,-1.133888,2.3172998,10.5685,6.7781997,-1.4248999,-8.4502,-4.7678,jog
-3.2674134,-9.140865,-0.34798375,1.3108,5.4765997,0.4411,-0.98719996,-8.8403,-4.1284,jog
0.93303555,6.1426687,1.6618501,-0.1638,2.1474,-7.416,-0.63049996,-9.1395,-3.4987,jog
5.706982,2.215486,-0.56695276,1.1,-0.1963,-16.5794,-0.41349998,-9.3259,-3.0044,jog
2.5249503,0.7934267,0.1675516,4.6036,0.969,-3.1416,-0.33769998,-9.3831,-2.8305,jog
3.3644886,-0.18280579,1.5427314,9.849,9.3234,17.3968,-0.1698,-9.362599,-2.9124,jog
4.3510184,-0.11920599,1.3929473,-9.911799,5.2397,11.5782995,0.3209,-9.2996,-3.0956,jog
4.6818457,0.64770913,0.88964665,-9.021999,-28.1955,2.5038,0.89229995,-9.4129,-2.6018,jog
3.8214333,1.8953228,0.5958205,4.7901,-5.4595,41.822,0.3583,-9.1915,-3.3995,jog
2.5390003,2.9378254,0.7844033,6.7507,0.3938,14.349999,0.4473,-9.259,-3.1999,jog
1.0368826,2.0635376,1.1194891,-1.0639,-12.3818,-4.3233,0.6717,-9.5555,-2.0999,jog
0.18584266,1.9646124,1.8611667,2.46,-17.4656,10.194099,0.66819996,-9.6595,-1.5544,jog
-0.016283922,1.463511,1.3505533,1.9786999,-11.9513,5.5576997,0.3944,-9.7507,-0.96819997,jog
-0.953613,0.12587315,0.2629164,2.3897998,-9.3667,-3.3639,0.1206,-9.8052,-0.1174,jog
-1.2952611,0.8686504,-0.82925826,-2.1189,-18.2732,-10.283299,-0.0581,-9.7737,0.8003,jog
-1.4786603,-0.10037389,-1.4843502,-1.4584,-13.5885,-17.6808,-0.2184,-9.6826,1.5389999,jog
-2.5381277,-2.0422273,-1.0498155,-4.194,-3.2301,-13.491699,-0.4739,-9.5871,2.0082,jog
-3.3368077,-2.446498,-0.30494392,2.2561998,4.7573,-6.0511,-0.8048,-9.5233,2.1971,jog
-3.8715067,-1.6105899,-0.04075344,13.214,12.2381,-9.6073,-1.2008,-9.4824,2.1934,jog
-3.7680786,-0.021397736,0.33889058,19.2505,12.153,-12.957399,-1.5201,-9.4464,2.1505,jog
-3.6787527,1.4465812,-0.1869073,17.6089,10.1051,-1.9661,-1.5749999,-9.4775,1.9661,jog
-3.215874,0.34110716,-0.33625513,6.8132,8.1967,-5.5964,-1.4489,-9.55,1.6933,jog
-3.822306,-0.13929473,-0.21774727,-5.6054997,4.9470997,-9.8459,-1.161,-9.6347,1.4122,jog
-4.137111,-0.5884552,-0.5622753,-7.0144997,3.6464,-3.9050999,-0.90919995,-9.7167,0.96309996,jog
-3.549319,-1.3942912,-0.92567027,-5.6647,2.3325999,-1.5709,-0.8174,-9.766,0.3548,jog
-3.193551,-3.3210473,-1.0387676,-4.1523,0.057299998,1.7974999,-0.80969995,-9.7659,-0.3755,jog
-2.696202,-4.413676,-0.9806307,-1.0589,-8.6826,-4.4172997,-0.88269997,-9.695,-1.1822,jog
-2.1263347,-5.1376557,-0.7872482,1.203,-22.8329,-2.6676,-0.81079996,-9.5976,-1.8434,jog
-1.4360744,-4.1947417,-0.43727478,3.0953,-26.83,-2.5884,-0.7319,-9.4643,-2.4619,jog
0.023614304,-2.0847085,-0.6226462,0.3067,-20.5113,-0.4919,-0.699,-9.2518,-3.1757,jog
1.877538,-0.2976659,-0.72155404,-2.9117,-16.5611,-4.2371,-0.6382,-8.9655,-3.922,jog
3.3400016,2.5143738,-0.61679935,1.9853,-11.1425,0.020299999,-0.5927,-8.6767,-4.5313,jog
3.897966,3.4644785,-0.6813242,4.9108,-5.9034,6.3859,-0.73319995,-8.3848,-5.0326,jog
3.3951366,2.9522767,-0.57917005,2.8978,-0.301,10.1221,-1.0639,-8.0934,-5.4344997,jog
2.3905776,2.4955068,-0.22235495,-3.1271,7.5267997,15.7935,-1.4623,-7.8995,-5.624,jog
0.91434306,1.0583851,-0.07122689,-4.4655,13.389999,17.290699,-1.8694999,-7.7511997,-5.7091,jog
-0.6192777,-0.3225194,-0.18133971,-2.2763,13.769799,16.107899,-2.0091,-7.778,-5.6246,jog
-1.5154868,2.3464904,-0.19811232,-0.0532,13.8271,14.4855995,-1.9276999,-8.0118,-5.3164,jog
1.1971214,6.74095,-0.34409165,2.0511,10.962299,9.7013,-1.5705999,-8.3734,-4.8568,jog
-3.4507253,-6.510741,-0.38247144,0.421,7.5618,1.6055,-1.1369,-8.7484,-4.2827997,jog
-1.1878012,5.55006,1.7708983,-0.5171,4.1482997,-5.4136996,-0.7969,-9.032,-3.7357998,jog
5.245587,1.5584917,-0.70438,0.36409998,1.0058,-14.9944,-0.5798,-9.2042,-3.3341,jog
3.0058932,2.9157994,-0.8972214,1.0468999,1.0955,-10.5133,-0.49769998,-9.2644,-3.1766999,jog
2.5039191,-0.05681047,1.716444,4.7007,6.1822,6.2901998,-0.4838,-9.2223,-3.2991998,jog
3.5477307,-1.2550663,1.685831,-0.018299999,8.4818,37.4577,-0.2856,-9.1193,-3.5953,jog
4.1320844,-1.0206336,1.4899178,-9.7283,-26.7757,-46.502697,0.1962,-9.195,-3.4032,jog
3.8122354,0.14597934,0.6459987,4.7170997,-8.8004,54.5326,-0.2649,-8.910299,-4.0871997,jog
3.3570535,1.2600753,0.55806905,10.6834,4.9888997,25.0795,-0.111899994,-8.8036995,-4.3188,jog
2.904193,1.1775737,1.0015572,0.23169999,-6.1363997,-5.6604,0.111499995,-9.1717,-3.4694998,jog
2.0633457,1.3995795,1.4720805,-5.6554,-21.2812,6.6510997,0.4971,-9.3743,-2.8363,jog
1.0947229,2.227651,1.5145444,1.3368,-15.8761,5.6474,0.20269999,-9.5034,-2.4112,jog
0.38652062,1.2749804,0.97537726,3.791,-11.1881,2.2416,-0.1723,-9.651,-1.7315999,jog
-1.2658525,-0.43111378,0.5464102,3.921,-12.6376,-5.4417996,-0.4887,-9.750899,-0.9227,jog
-1.8965272,1.4394253,-0.2848552,-1.1714,-13.3970995,-9.5686,-0.61329997,-9.7858,-0.17909999,jog
-2.0324533,0.4095066,-0.85781187,-3.1573,-6.0982,-11.6793995,-0.72609997,-9.7688,0.4606,jog
-2.8876996,-2.1529858,-0.595803,-1.4225,1.1894,-9.278999,-0.9604,-9.7016,1.061,jog
-3.4722626,-2.8237507,-0.44450045,3.8853998,6.3317,-3.9419,-1.2473999,-9.6268,1.3922,jog
-3.8934805,-1.7329199,-0.36280158,8.2227,10.0515995,-13.6498995,-1.6032,-9.551499,1.5387,jog
-3.5273454,-0.064577185,0.17802358,12.870999,10.5847,-14.6016,-1.8288,-9.506,1.5685999,jog
-3.7858112,1.2254655,0.41875684,14.6491995,10.4932995,-2.6578999,-1.9202,-9.5224,1.3438,jog
-3.6478777,-0.75876445,-0.7180808,6.233,8.5074,-5.3689,-1.8984,-9.5764,0.92649996,jog
-2.871084,1.2094957,-1.3121735,-0.1986,4.6896996,-5.1875997,-1.7234,-9.642,0.4804,jog
-3.7145844,-0.21462314,-1.0217855,0.3445,3.103,-1.5922999,-1.6096,-9.6735,0.042799998,jog
-3.3846297,-1.638009,-0.9780476,-3.6892998,3.7273998,-1.3425,-1.5375999,-9.670199,-0.5403,jog
-2.5646915,-2.943044,-1.4542781,-8.5141,2.6296,2.3471,-1.4984,-9.611899,-1.2389,jog
-2.0215275,-4.37931,-1.5711454,0.4459,-7.3426,-2.1976,-1.5344,-9.495399,-1.9111999,jog
-1.4921867,-4.896155,-1.2924861,9.3534,-23.9058,0.3863,-1.5570999,-9.309199,-2.6615,jog
-0.4729144,-3.8767254,-1.1937354,-0.95019996,-30.537899,3.2868,-1.4620999,-9.0907,-3.375,jog
0.5326047,-2.368726,-1.019953,-2.2654,-18.9258,-4.0294,-1.1373999,-8.9152,-3.9236999,jog
1.809505,-0.30560714,-0.99750805,-0.4788,-15.393,0.054899998,-0.9921,-8.6528,-4.5072,jog
3.102445,1.7684897,-0.6797185,4.0713997,-10.911799,0.3532,-0.9823,-8.3484,-5.0506,jog
3.601487,2.548425,-0.3809879,1.9727999,-6.2767997,4.3833,-1.0509,-8.1095,-5.4129996,jog
2.9672518,2.1113074,-0.08449139,1.4204,-0.7071,10.342299,-1.2831,-7.9226,-5.6351,jog
1.6375203,1.3243035,-0.03939208,-2.3644,5.7313,13.7878,-1.6366,-7.7907,-5.7268,jog
0.15968017,0.020018926,-0.19362682,-3.2461,12.035,14.2934,-1.8924999,-7.7788997,-5.6636,jog
-0.5658357,-0.56231016,-0.5166175,-3.8672998,15.4389,15.069099,-1.997,-7.878,-5.488,jog
-1.1975926,1.7844421,-0.2868972,-3.6934,14.3692,11.5796995,-1.857,-8.1322,-5.1563997,jog
0.96663314,6.1119685,-0.31756267,-0.6378,10.0383,6.6120996,-1.5979999,-8.429999,-4.7488,jog
-0.968361,-3.8107867,-0.8413185,0.49019998,5.7334,-0.46469998,-1.3040999,-8.763599,-4.2032,jog
-2.3822873,4.2021594,1.7468826,1.1314,3.4406998,-4.8143997,-1.1215999,-9.0011,-3.7271,jog
2.8524265,0.8664338,0.30698597,-0.5006,1.1566,-9.0545,-1.0193,-9.119599,-3.4587,jog
3.5287416,3.0464723,-1.0125703,-1.0375,2.162,-5.5332,-0.9826,-9.1345,-3.4299998,jog
2.3728797,0.5717175,1.0979692,1.4374,6.9083,2.7575998,-0.9274,-9.105,-3.5224998,jog
3.4670618,-0.17343336,1.441607,3.7363,14.3769,37.1023,-0.7453,-9.0225,-3.7695,jog
4.166223,-0.8392241,1.3548816,-5.2093,-9.3684,-70.6214,-0.2333,-9.0974,-3.6541,jog
4.2708383,-0.20116664,0.7421315,-4.4595,-29.558899,52.683197,-0.36519998,-9.0301,-3.8068998,jog
3.5569112,0.5913699,0.1996133,6.0161,0.93109995,11.4211,-0.3381,-8.825399,-4.2622,jog
3.0002732,1.4722899,0.33976325,2.2946,-0.7249,4.3463,-0.3234,-9.052199,-3.7579,jog
2.2345624,1.683597,0.8693834,-0.91539997,-12.531899,4.1865,0.072,-9.2976,-3.1176,jog
1.187906,2.2079113,1.6329474,2.6894,-16.964699,4.2618,-0.100499995,-9.4347,-2.6731,jog
0.39805725,1.5528543,1.6236798,4.3155,-14.043699,4.8661,-0.383,-9.590199,-2.0124,jog
-0.6070255,-0.9857445,0.97874576,6.6133,-9.0227995,-3.6392999,-0.6999,-9.7176,-1.1168,jog
-1.8331717,0.08522443,-0.07197738,1.7839999,-13.6538,-8.1178,-0.8328,-9.7644,-0.36479998,jog
-1.7518742,0.5062153,-0.94570667,-2.0269,-10.991099,-12.1072,-0.87579995,-9.7597,0.38819999,jog
-2.6195123,-1.1675205,-0.8419992,-5.7553,-2.9113,-12.4718,-0.95229995,-9.7196,0.8901,jog
-3.6011028,-2.8568072,-0.12318534,-2.8534,4.3471,-7.0147,-1.1575,-9.6525,1.2875999,jog
-4.0843844,-2.395569,0.20104447,6.993,7.9297,-5.2089,-1.5698999,-9.5675,1.4726,jog
-3.7942235,-0.754436,0.5812819,14.658299,9.927899,-15.7906,-1.8901,-9.5063,1.4925,jog
-3.854001,0.87296134,0.4851317,17.8262,8.6812,-7.1137,-2.0472999,-9.4854,1.416,jog
-3.9987762,-0.7223394,0.0056199604,10.8323,8.915999,-2.2897,-2.0356998,-9.5338,1.0638,jog
-3.8206654,-0.844879,-0.58622116,-2.6571,6.1106,-7.7205,-1.8636999,-9.6017,0.70879996,jog
-4.0661635,-0.47345546,-0.50298643,-6.3608,4.7338,-3.5897,-1.6903,-9.6567,0.2456,jog
-3.3208728,-0.62899923,-0.97522014,-4.7047997,2.8193,-2.3216999,-1.6694,-9.6546,-0.41419998,jog
-2.30558,-1.745626,-1.6593543,-3.0015,0.4256,1.9131999,-1.7449,-9.585,-1.1187999,jog
-1.9577707,-2.7737646,-2.086349,2.9526,-7.5264997,-2.9717,-1.864,-9.4683,-1.7451999,jog
-1.5547392,-3.8828514,-2.0254545,8.272699,-19.3393,-1.9799999,-1.918,-9.2862,-2.5015,jog
-0.94848174,-3.4149985,-1.5199897,5.677,-24.1085,2.4621,-1.9602,-9.0575,-3.2073998,jog
0.2842967,-1.4812609,-1.0796257,0.1598,-17.2852,0.6313,-1.9152,-8.8102,-3.8576999,jog
1.9390608,0.5278225,-0.90821695,-4.1477,-15.5643,0.6684,-1.8636999,-8.452,-4.6106997,jog
3.2375858,2.3392124,-0.6083171,0.39949998,-12.3803,-1.7767999,-1.7724999,-8.194,-5.0878,jog
3.8549087,3.0645363,-0.25160667,2.6869,-8.7402,3.1554,-1.6867,-8.0095,-5.4010997,jog
3.3661642,2.7623675,-0.02242748,2.1515,-4.0319,8.0414,-1.6611999,-7.8634996,-5.6191998,jog
2.1109931,2.0344255,-0.10365511,-1.6369,4.6088,13.446099,-1.7854999,-7.7567997,-5.7282996,jog
0.66055477,0.64388686,-0.35063663,-4.2553,12.137199,16.3879,-1.9425,-7.7046,-5.7476,jog
-0.4174653,0.1314233,-0.71268773,-4.3419,14.3101,16.1294,-1.9440999,-7.7788997,-5.6461,jog
-1.2612273,1.9285364,-0.88373,-2.5528,14.155,13.7339,-1.7423999,-8.0258,-5.3589997,jog
0.7164751,5.285136,-1.2460604,-0.46069998,10.8192,8.4611,-1.4024,-8.3773,-4.9013,jog
-2.6255336,-4.7363176,-1.5665028,0.61439997,7.6548,1.4807,-1.0459,-8.7727995,-4.256,jog
-2.384556,4.061102,1.0766238,1.2840999,4.8385997,-4.3168,-0.84279996,-9.0163,-3.7637,jog
2.6429172,-1.0464646,-0.58878684,0.6584,0.461,-10.7892,-0.678,-9.1693,-3.4106998,jog
3.7136593,3.4685278,-0.64554495,1.7765,-0.1472,-8.0293,-0.5703,-9.217999,-3.2972999,jog
2.303119,0.72804666,0.9621826,5.4905,4.5685,1.12,-0.4303,-9.1973,-3.3755,jog
3.1671965,0.073705256,1.0844952,2.3792999,6.427,29.8011,-0.1336,-9.113999,-3.6174,jog
3.8334413,-0.30782372,0.912877,-1.4399999,-19.9552,-48.5262,0.4692,-9.1607,-3.4685998,jog
4.453155,0.9699842,0.2996556,-4.2047,-12.721499,42.506397,0.3998,-8.951099,-3.9859,jog
3.67966,0.9440311,0.037734017,-2.1469998,7.9676,14.235499,0.5485,-8.7619,-4.37,jog
2.9328861,2.234964,0.33777356,-1.3532,0.7468,4.7099,0.56869996,-8.9942,-3.8665,jog
2.381432,2.4282591,0.33278194,-0.49359998,-14.49,1.8778,0.8957,-9.2224,-3.2115,jog
1.1906985,2.1912086,0.81117666,4.8981,-17.032999,3.4966998,0.7603,-9.3762,-2.771,jog
-0.17708111,2.1242402,1.2864124,5.5901,-9.5366,6.7697997,0.5586,-9.547,-2.1705,jog
-0.6927212,1.3387723,1.016026,5.4337,-3.3293,3.0339,0.3718,-9.6938,-1.4354,jog
-1.3986021,1.153331,0.39879027,-0.85249996,-10.5736,-6.9512997,0.33269998,-9.7849,-0.56049997,jog
-1.6851329,0.75839794,-0.31801644,-1.0242,-12.2667,-6.5646,0.3279,-9.7982,0.2394,jog
-1.9590274,0.48647562,-0.5925044,-3.8765998,-5.8191,-12.5848,0.2482,-9.7733,0.76769996,jog
-2.4073849,-0.5167571,-0.5012411,-6.0183997,2.1069999,-11.0482,0.1344,-9.7268,1.2415999,jog
-2.7410746,-1.3089097,-0.4675737,-0.2704,7.2137,-6.1028,-0.0826,-9.694799,1.474,jog
-2.847941,-1.2069999,-0.09960594,5.6696997,11.8022995,-6.6565,-0.3937,-9.6938,1.4295,jog
-3.0931423,0.050981067,-0.19367918,8.6623,12.9487,-8.4938,-0.6502,-9.7027,1.2663,jog
-2.8249376,-0.675425,-1.4609802,9.5012,10.8073,-4.038,-0.7536,-9.728499,0.9783,jog
-2.871119,1.2317661,-1.3768902,6.2401,8.0514,-2.4575,-0.7091,-9.7578,0.6727,jog
-4.2715364,1.2227428,-0.6360329,1.8908999,5.8828998,-2.6374,-0.5866,-9.785999,0.2445,jog
-3.551396,1.3403605,-0.4830897,-1.3357999,4.4379997,-3.1007,-0.498,-9.792399,-0.17459999,jog
-3.2040231,0.15554374,-0.18315485,-4.0931,1.6037999,-0.4678,-0.4179,-9.772699,-0.69909996,jog
-2.935574,0.45095816,0.1662077,2.0597,-6.345,-0.5797,-0.4219,-9.7182,-1.2443,jog
-2.239467,0.052988198,0.4994085,2.8149,-23.3555,-1.4223,-0.3829,-9.6242,-1.8432,jog
-1.5370591,-1.2560611,0.4590216,-13.146299,-31.2244,-0.9536,-0.1318,-9.5124,-2.3804998,jog
-0.9034697,-1.846506,0.16763887,-14.3578,-15.910299,-2.7127,0.22639999,-9.3417,-2.975,jog
0.016528267,-0.7199483,0.16470672,-15.125,-16.2973,1.4114,0.4052,-9.0822,-3.6768,jog
1.3531363,1.3554751,0.37323865,-10.866099,-14.486899,-1.0558,0.5985,-8.794,-4.2985,jog
2.9251893,3.5470152,0.4897045,-4.6847997,-9.8988,4.3801,0.6444,-8.4984,-4.8508,jog
3.869744,3.8204734,0.33042574,-0.6724,-4.9196997,4.1879997,0.6626,-8.2015,-5.3353996,jog
3.6189752,2.5695436,0.37234855,1.0303,-1.2281,7.4716997,0.5877,-7.9606,-5.6966996,jog
2.4220808,1.1882201,0.19884536,0.094299994,4.1885,11.781199,0.3469,-7.7679,-5.9756,jog
0.30415854,-0.06867871,-0.3336895,-1.8192999,11.887199,14.4937,0.1228,-7.6703,-6.1089997,jog
-1.1620227,0.8836602,-0.6793345,-2.8241,17.077099,15.9141,0.0095999995,-7.6724997,-6.1075,jog
-1.5633264,3.0045319,-1.1794063,-0.183,16.945799,15.2711,0.1144,-7.8353996,-5.8959,jog
0.7959923,4.6797686,-1.0909704,2.0046,10.9737,9.0756,0.43719998,-8.169,-5.4079,jog
-4.407567,-6.5223303,-0.8221548,2.3397,5.3191,0.89879996,0.7689,-8.5651,-4.7135997,jog
-1.45639,4.2378864,0.9642246,2.8816,1.9649999,-5.7202997,0.9429,-8.918,-3.9685998,jog
3.3330379,3.267937,-0.61165065,3.2746,-0.7309,-16.8815,0.99109995,-9.0855,-3.5554,jog
1.8359642,3.4820192,-1.4728484,4.023,0.3428,-6.256,1.0469999,-9.1001,-3.5015,jog
2.2183833,2.168973,-0.36953858,5.6212,6.5003,3.9271,1.2335,-9.000999,-3.6917,jog
2.6442611,1.9522206,0.3206868,-8.762,6.4063997,27.713799,1.6718,-8.8483,-3.8836,jog
3.1667778,1.2071221,0.6777986,-9.5198,-19.721199,-40.432,2.2138999,-8.8651,-3.5605,jog
3.9459102,2.1368415,0.7556752,-0.3139,-10.0137,58.615097,1.8240999,-8.4718,-4.5903,jog
4.194951,2.8934069,0.7627438,2.3683999,1.4506999,11.7125,2.0542998,-8.3742,-4.6713,jog
3.397807,2.7495916,0.3826809,-0.7048,-4.3788,-0.8285,2.4406,-8.6345,-3.957,jog
2.3854463,4.6293983,-0.09103637,-2.7387,-14.2134,7.5365,3.0035,-8.6949,-3.3981,jog
1.0368652,4.8062353,-0.302675,-2.891,-16.8339,1.2019,3.1852,-8.8006,-2.9278998,jog
-0.3424336,2.775318,0.83815944,-3.0741,-10.6529,6.0495,3.231,-8.9604,-2.3328,jog
-1.2781744,2.2653153,1.4651865,-1.0582,-5.2651997,7.2036,3.1568,-9.130899,-1.6825,jog
-1.6959714,2.4815965,1.0418394,0.7926,-4.9427,2.9406998,3.0712,-9.276899,-0.8225,jog
-2.0322788,1.6328602,0.04993387,3.6411,-9.2906,-6.1159997,2.9489,-9.3517,0.1339,jog
-2.095582,0.5099154,-0.704188,1.0379,-11.652699,-8.235499,2.8356,-9.3334,1.008,jog
-2.5589144,-0.0029670596,-0.7676831,-5.7216997,-5.0457,-18.1644,2.7405,-9.2719,1.6401999,jog
-3.1482422,-0.39229766,-0.4606971,-10.481999,3.2742,-15.534699,2.6171,-9.217,2.0898,jog
-3.449521,-0.40893063,0.07614872,0.0567,8.0723,-7.1622996,2.3164,-9.2785,2.1706998,jog
-3.5457935,0.74167764,0.87460196,9.9699,10.8646,-2.4261,1.9842999,-9.3838,2.0437,jog
-3.6693454,1.159527,-0.0030019663,13.5084,11.5175,-4.4428997,1.6918,-9.4875,1.8147999,jog
-2.9519277,1.3313546,-0.45799184,8.2525,8.1306,-4.1451,1.6227,-9.5623,1.4483,jog
-4.0062985,2.412394,0.17378244,0.2386,5.0095,-5.1721997,1.7324,-9.5892,1.1024,jog
-4.2877154,0.95743525,0.26619762,-6.1752,4.4274,-4.367,1.8799,-9.6053,0.611,jog
-3.7440977,0.41341615,0.20708331,-11.7676,3.9578998,-2.0502,1.9707999,-9.6065,-0.009099999,jog
-3.4270587,-0.29106855,0.9224763,-8.7788,-1.0742999,1.2071999,1.9533,-9.5855,-0.6874,jog
-2.7850044,-1.7898875,1.3164495,-2.6738,-12.538,-4.7907,1.801,-9.5464,-1.3383,jog
-2.4601812,-3.443901,1.3381613,-8.5429,-28.846498,3.0477998,1.8449,-9.4092,-2.0574,jog
-1.8871373,-3.9813752,1.3723699,-8.1549,-21.1971,-6.1412997,1.9767,-9.2720995,-2.508,jog
-0.75422657,-2.3177273,0.99433154,-11.2332,-18.0483,-3.6966,2.0934,-9.0278,-3.2071,jog
0.5704958,-0.30452505,1.095421,-10.3101,-16.5458,-6.1154,2.1117,-8.7651,-3.8579,jog
2.1517816,1.6343263,1.1424751,-4.8269997,-11.8776,-2.6926,2.1104999,-8.4613,-4.4856997,jog
3.2783217,3.1326041,0.8592081,0.8067,-6.9997997,1.5863999,1.9291999,-8.171,-5.0677,jog
3.6111734,3.6475286,0.26539478,0.043899998,-4.0812,4.0779,1.4857999,-7.8925996,-5.6274,jog
3.2604146,2.9018192,-0.23624776,-0.3283,1.4555999,11.9802,0.9363,-7.6632,-6.0471,jog
2.549158,2.2312813,-0.26197392,-4.8402,7.4797997,14.0285,0.16239999,-7.421,-6.4087,jog
1.2733225,1.2385904,-0.51553535,-5.5566,12.3046,13.744599,-0.239,-7.3325996,-6.5073,jog
0.37681657,4.0897427,-1.1710811,-0.7762,12.9495,14.5019,-0.4398,-7.3989,-6.4212,jog
2.4644747,7.6372466,-1.0373539,1.8853999,11.1166,12.5418,-0.4046,-7.6843,-6.0792,jog
0.57770395,2.0463288,-0.25160667,5.2462,9.467,8.4959,-0.19569999,-8.0254,-5.6324,jog
-1.6845045,-5.2823086,0.7893252,4.5078998,5.1944,3.3042,0.1502,-8.411,-5.04,jog
5.140763,10.74744,2.0997708,0.6611,2.0707,-3.2839,0.4666,-8.7196,-4.4632,jog
2.481317,2.0783556,0.13578662,2.6032999,1.0475,-11.291599,0.7015,-8.932,-3.987,jog
1.68618,0.06435029,1.064773,7.5144,2.7459,7.2592998,0.88979995,-9.0222,-3.7387,jog
3.3501594,0.10749483,1.1383561,0.8045,14.0824995,31.2622,1.4509,-9.0223,-3.5584998,jog
3.8935153,0.094544485,0.7826929,-18.2474,9.3391,-60.702698,2.0664,-9.1331,-2.9129,jog
3.9496276,0.4086863,0.57150805,-3.9929,-18.744999,41.386997,2.2277,-9.1549,-2.7194,jog
3.2010036,1.4749428,0.51609385,6.567,-18.3922,29.225899,1.7686,-9.0859995,-3.2382998,jog
2.1052685,1.8873816,0.78236127,10.8954,-6.7328,-22.5952,1.9316,-9.4285,-1.8821,jog
1.3664706,1.791563,1.0558544,7.2356997,-9.138599,11.6473,1.9726,-9.5135,-1.3307999,jog
0.5661499,2.6080456,1.5041422,7.2422,-11.601999,6.5730996,1.7504,-9.599899,-0.97349995,jog
-0.03440044,1.933214,1.5410559,0.64239997,-10.2129,6.6554,1.5540999,-9.6748,-0.389,jog
-0.919422,-0.19432496,0.93088883,-0.9906,-9.7477,-3.4868999,1.4024,-9.6988,0.36839998,jog
-1.5407766,0.18256144,0.16896532,-3.8843,-16.3822,-9.372,1.2856,-9.6544,1.1442,jog
-1.5506203,0.5090078,-0.7134208,-3.5946,-12.7667,-15.4368,1.1429,-9.5728,1.7958,jog
-2.1577156,-0.61006236,-0.92574006,-5.0069,-3.4015,-12.847199,0.91749996,-9.504,2.2364,jog
-2.7431514,-2.373351,-0.513598,-1.8185999,4.1891,-7.6228,0.63199997,-9.455299,2.5233,jog
-3.519439,-2.61384,0.030787608,5.0141997,10.0564995,-7.8890996,0.2126,-9.4387,2.6523,jog
-3.6792414,-1.1197858,0.23520057,12.7529,9.872499,-14.7479,-0.18069999,-9.441,2.6464,jog
-3.2383711,0.84918994,0.6726673,17.5253,9.0261,-5.3589,-0.3637,-9.4871,2.4562,jog
-3.5965476,1.158567,-0.078173295,12.3742,9.7269,-2.2398999,-0.40019998,-9.5503,2.1908998,jog
-3.2207782,-0.47534043,-1.0314373,-0.37269998,6.8431997,-6.3816,-0.28419998,-9.6185,1.8901,jog
-3.7396646,0.38531634,-0.78267545,-7.9466996,5.6247997,-6.3690996,-0.0849,-9.6946,1.4756,jog
-3.6425893,0.55913365,-0.6741509,-8.6532,5.1421,-3.727,0.072399996,-9.761,0.94189996,jog
-2.8136277,-0.15692255,-0.8999616,-8.6784,4.8701997,0.1633,0.0975,-9.8029995,0.24849999,jog
-2.2775848,-1.7715092,-1.16307,-4.7953,-0.2861,0.5726,0.048899997,-9.795,-0.4745,jog
-1.798108,-2.6793945,-0.953229,3.4915,-12.350699,-4.8743,-0.069,-9.7436,-1.1077,jog
-1.2879308,-3.4144573,-0.727523,2.0697,-29.8034,-0.23349999,-0.0201,-9.6388,-1.8061,jog
-0.67839205,-2.5299246,-0.42252675,-3.7759,-22.095798,-1.4793999,0.1572,-9.5011,-2.4234998,jog
0.44615853,-1.0332174,-0.08450884,-6.7686996,-15.6289,-0.99399996,0.32569999,-9.2897,-3.1246998,jog
1.8884637,0.5925567,-0.049846604,-4.5871997,-12.208799,-3.9887,0.48799998,-9.0323,-3.7879,jog
3.3487458,2.9112616,-0.08422959,-0.7241,-8.7296,-0.3863,0.6358,-8.7948,-4.2914,jog
4.1705165,3.7695446,-0.23636994,-1.4727,-4.1152997,4.9262,0.6784,-8.5744,-4.7104,jog
3.8104029,2.7882333,-0.35667548,-1.7161,0.0905,8.2364,0.5785,-8.3869,-5.0492,jog
2.6275933,1.879964,-0.42537165,-5.4803,6.7323,12.673599,0.322,-8.232699,-5.3185997,jog
0.6484771,0.46113345,-0.7455174,-5.5038,12.627299,13.5884,0.1396,-8.165299,-5.4293,jog
-0.5337217,0.29286626,-1.3279338,-3.8762999,14.715099,14.0566,0.041899998,-8.2133,-5.3581,jog
-1.7155888,3.690429,-1.494892,-1.8377999,14.528999,15.448099,0.1118,-8.409699,-5.0432,jog
1.0943389,6.592248,-1.6481494,0.5482,9.8258,8.1609,0.403,-8.7275,-4.454,jog
-3.486679,-6.2503557,-0.8777086,1.2391,5.9747,0.76489997,0.75159997,-9.0638,-3.6676,jog
-2.3644674,3.523017,2.246483,-0.18699999,1.5712,-5.3978,1.0009,-9.3087,-2.9180999,jog
4.3322215,3.353877,0.33583626,2.9383,-0.71099997,-15.718599,1.1804,-9.4388,-2.3843,jog
3.200934,2.7327318,-0.9250245,3.0507,0.1043,-10.1551,1.3426,-9.45,-2.2502,jog
2.1066997,1.5764512,0.8755793,6.0330997,7.68,4.4996,1.6062,-9.3864,-2.3421,jog
3.212069,0.0652055,1.0006671,-2.4373999,14.0139,34.6138,2.0647,-9.2479,-2.5265,jog
3.8522558,0.0068940506,1.0974456,-17.406399,-17.871,-73.673,2.7258,-9.2149,-1.9557999,jog
4.26925,1.4592873,0.734836,-8.4846,-25.849998,68.8473,2.6006,-9.0224,-2.829,jog
3.7210593,1.8707137,0.79927355,4.8138,2.8953,13.7583,2.4038,-8.9951,-3.0788999,jog
2.8484995,2.769977,0.8912698,2.0036,1.3722999,-2.1134,2.5170999,-9.2372,-2.123,jog
1.5783885,3.1167216,0.6633822,-0.9508,-19.8154,5.5618997,2.7846,-9.3005,-1.3843,jog
-0.0015707964,2.6803546,1.1523187,1.2852,-17.728699,1.0026,2.6569998,-9.3963995,-0.90449995,jog
-1.086258,1.3250365,1.1079001,0.4242,-7.7538,7.1885,2.4687,-9.486199,-0.2944,jog
-1.5726115,1.996709,0.53112113,-1.2595999,-5.5597997,-1.5469999,2.2598,-9.532599,0.4389,jog
-1.6181645,2.3609767,-0.18809414,-4.6735,-13.918699,-7.4638996,2.0943,-9.4896,1.3151,jog
-1.9772311,0.46050513,-0.5394813,-1.8108,-12.3075,-12.830899,1.8794999,-9.3945,2.0925999,jog
-2.4270024,-1.1296295,-0.25471336,-2.7561998,-2.5581,-15.2048,1.5795,-9.288199,2.721,jog
-2.9102318,-1.5213686,0.1375843,-3.3932998,7.0478997,-13.7816,1.2751,-9.215199,3.1021,jog
-3.1602676,-0.9119171,0.22244221,6.4301,10.850599,-12.412399,0.8562,-9.2423,3.1647,jog
-2.8018992,-0.07559021,0.449527,13.9358,10.7097,-6.58,0.59749997,-9.3171,3.0005,jog
-3.020397,0.5854533,0.08874999,11.5215,9.8243,-3.7356,0.38369998,-9.412399,2.7254999,jog
-2.821377,-0.42006585,-0.9985901,2.7112,8.394199,-6.7995996,0.2895,-9.502399,2.4062,jog
-3.0581658,2.2570074,-1.0092367,-4.0116997,6.8722,-6.5902,0.3636,-9.578899,2.0693,jog
-3.8636353,1.2507204,-0.67964864,-4.5924,5.9392,-4.5348997,0.454,-9.6657,1.5928999,jog
-3.3470876,0.5489235,-0.39563122,-4.3111,5.2514,-1.4943,0.4669,-9.7429,1.0138,jog
-2.4685414,0.57910025,-0.28448868,-4.6825,1.7576,0.46499997,0.43629998,-9.7892,0.38799998,jog
-2.188224,-0.54323375,0.32040754,0.47529998,-8.137199,-5.7028,0.34829998,-9.7991,-0.16149999,jog
-1.908535,-1.7120458,0.6387905,-1.1101999,-25.555899,-3.3407,0.3355,-9.7675,-0.8074,jog
-1.2379271,-1.5765035,0.249617,-11.5938,-29.6673,-3.1762998,0.5025,-9.7063,-1.3052,jog
-0.07230899,-0.53204614,-0.005550147,-12.537,-17.3619,-4.8013,0.769,-9.596399,-1.8671,jog
1.0506184,0.99188805,0.02942625,-12.260699,-13.6543,-1.9583,0.9733,-9.3913,-2.6506999,jog
2.2929962,2.6916294,-0.024399703,-8.8352995,-8.3462,0.90629995,1.0684,-9.2076,-3.2010999,jog
3.3722205,3.5860233,-0.35685003,-4.5628,-3.7946,2.4127,1.1599,-9.0324,-3.6385,jog
3.4441805,2.5345497,-0.3213151,-1.051,-0.69979995,5.0720997,1.0608,-8.8714,-4.0424,jog
2.639636,1.5287688,-0.2974041,-1.2645,3.0340998,9.637199,0.80359995,-8.722,-4.4102,jog
1.3008811,1.4284822,-0.5287475,-3.9222999,8.4074,12.1298,0.6175,-8.6133995,-4.6473,jog
-0.04522148,2.3031714,-0.853466,-2.4615,14.1179,12.2858,0.5688,-8.6066,-4.6661,jog
-1.2410687,3.8709831,-1.3578486,0.0222,16.5875,12.9352,0.6544,-8.703,-4.4721,jog
1.3087351,6.155968,-1.5488051,3.6137,13.1144,9.4793,0.8875,-8.8975,-4.0267997,jog
-2.6374369,-6.7664843,-1.1350051,2.3825,8.7269,2.7345998,1.2164,-9.1387,-3.3425999,jog
-0.9284628,6.5705886,1.7076302,0.76909995,5.1587,-3.4018998,1.4275,-9.3364,-2.6389,jog
3.2661393,3.1944935,0.71455526,2.09,1.9211999,-11.7554,1.5676999,-9.4625,-2.0424,jog
3.1213992,3.494062,0.19582593,2.2449,0.89129996,-13.108,1.7070999,-9.4917,-1.7784,jog
2.125654,1.3333268,1.4738781,2.5128999,5.7911997,-1.7098,1.949,-9.4588995,-1.7027999,jog
3.1032302,0.49303806,1.139508,-8.3604,7.8953,28.625898,2.3783,-9.3467,-1.7752999,jog
3.812026,0.5209808,0.6496988,-15.6296,-24.2143,-33.5069,2.8516,-9.3047,-1.2085,jog
3.5411334,1.8020525,0.55840063,-6.5815,-12.1395,53.0388,2.8451998,-9.170199,-1.9951999,jog
2.9684386,2.2831175,0.6288596,-1.5738,4.5534,7.6212997,2.78,-9.2312,-1.7960999,jog
1.7077348,2.6845956,0.8079129,3.6374,-2.1799,3.6206,2.7368,-9.3624,-1.012,jog
0.66491807,3.5531063,0.8034623,1.4144,-19.3998,0.2339,2.7436,-9.4121,-0.2339,jog
-0.4517261,2.5294533,1.3879906,7.3508,-14.374399,2.8343,2.4362,-9.4949,0.28419998,jog
-0.82000804,1.6793383,1.314966,3.481,-5.9337997,2.7826998,2.2361999,-9.5116,0.8359,jog
-1.2113109,1.0756115,0.7709992,-0.2861,-5.0564,-6.2592998,2.1004,-9.447599,1.5814999,jog
-1.6367348,0.36206856,0.03544764,-3.6216,-13.851,-11.351399,1.9251,-9.3317995,2.3195,jog
-1.8710278,0.13599606,-0.5134235,-3.7278,-13.2689,-16.671799,1.6881,-9.198,2.9522998,jog
-2.5457199,-0.52283084,-0.3819653,-4.2148,-2.4468,-13.428499,1.3708999,-9.1151,3.3472,jog
-3.3773167,-1.6231736,0.049113564,-1.7533,5.535,-10.9748,0.93939996,-9.085,3.5707,jog
-3.9443045,-1.374534,0.48343876,8.7073,10.2406,-4.6877,0.55,-9.1325,3.5305,jog
-3.6558015,-0.29794514,-0.1730843,12.9776,11.3075,-9.865,0.1926,-9.198999,3.3925998,jog
-2.8412564,0.7605621,-0.7180459,12.6219,10.3684,-7.2107997,-0.020399999,-9.2799,3.1704998,jog
-3.5297713,1.6042718,-0.41505674,5.4523,7.2212,-6.199,-0.0488,-9.378699,2.8648,jog
-3.7173767,1.1579212,-0.47006953,-2.4431999,4.9585,-6.915,0.040599998,-9.4794,2.5118,jog
-2.8605423,0.12899728,-0.46495572,-5.9031,4.0537,-5.1436996,0.1466,-9.6043,1.9761,jog
-2.556785,-0.70347244,-0.39248964,-4.4432,0.63549995,-1.5604999,0.1872,-9.7066,1.384,jog
-2.245593,-1.3825625,-0.37248817,-0.0614,-6.3352,-1.2085,0.120299995,-9.786799,0.6103,jog
-1.6059473,-2.0693495,-0.22563617,-4.2156,-16.0455,-2.2563,0.1557,-9.8048,-0.107,jog
-0.7484321,-2.0991948,-0.45668286,-5.8233,-20.4345,-2.9582999,0.3022,-9.779699,-0.6602,jog
0.47902307,-0.7793244,-0.603849,-6.9364996,-17.3405,-0.2026,0.41509998,-9.7062,-1.3369,jog
1.5392059,1.0200751,-0.34362042,-7.7078,-16.0353,-2.6334,0.55869997,-9.559899,-2.1129,jog
2.7121196,3.0381818,-0.064908795,0.2584,-9.6207,-2.734,0.6437,-9.433499,-2.6007,jog
3.576267,3.6127617,0.17528342,3.0493,-5.8192997,1.7354,0.6771,-9.2828,-3.0886998,jog
3.3360398,2.5895798,0.3273365,-0.3013,-2.2266,5.2662997,0.6543,-9.129399,-3.5207,jog
2.2981622,1.0736219,0.24207717,-3.9359999,2.5458999,9.4071,0.54289997,-9.0084,-3.837,jog
0.50672144,-0.19713494,-0.1791755,-6.7465997,8.3568,13.1126995,0.4605,-8.9452,-3.9924998,jog
-0.96797705,1.7635156,-0.636923,-6.2734,13.517699,13.1325,0.5071,-8.9772,-3.9143,jog
-1.3745865,4.8213673,-1.1735594,-6.4516,16.738499,13.891999,0.6461,-9.0893,-3.6244998,jog
-0.5470036,1.0806206,-1.179092,-2.8330998,13.5526,7.0848,0.88159996,-9.286699,-3.0249,jog
-2.2460468,-2.2525568,-0.41908845,0.5516,7.7567,-0.4849,1.0271,-9.4630995,-2.3588998,jog
0.8831366,3.8165114,0.06263987,3.0005999,3.5633998,-6.0986,1.069,-9.6043,-1.6682,jog
3.5669467,2.4198642,-0.29068458,5.272,0.96709996,-16.4201,1.0532,-9.6755,-1.2023,jog
2.4771981,2.0417733,0.45511204,6.0263996,2.2498999,-8.286099,1.0833,-9.6833,-1.1086,jog
1.9604062,0.9182177,1.1729834,3.7531998,7.5372,8.1585,1.2480999,-9.645599,-1.2547,jog
2.9493794,1.914661,0.6339385,-10.1623,-3.7219,-36.717,1.6011,-9.5758,-1.3816999,jog
3.7657223,2.9623299,0.19872318,-7.8585997,-23.401299,27.1913,1.8569,-9.5196,-1.4489,jog
2.8787985,2.7582834,0.30276227,-1.3496,-0.2419,9.5487995,1.8594999,-9.4274,-1.9583999,jog
1.3700311,3.8875115,0.21619393,-1.6126,2.4793,17.9238,1.9853,-9.461599,-1.6448,jog
0.31117475,4.209106,0.044139378,-3.0133998,-10.0444,1.4561,2.1014,-9.5394,-0.8677,jog
-0.5697802,3.4173896,0.4957084,-1.146,-15.5862,2.957,2.0384,-9.5873995,-0.3092,jog
-1.5215256,2.0361884,0.85175556,0.5682,-8.7115,5.7123,1.8147999,-9.6367,0.1029,jog
-2.0162392,1.0615965,0.7196865,0.8099,-5.2058,3.5328999,1.6613,-9.631599,0.80149996,jog
-2.0095198,0.8566425,-0.105749495,1.6814,-6.8483996,-8.8638,1.5645,-9.558,1.5382999,jog
-2.2096217,0.0022863813,-0.586867,1.6825999,-11.665199,-10.634399,1.3867999,-9.4484,2.2301,jog
-2.6212926,-1.0643542,-0.54166293,-1.8299999,-6.7766,-15.2912,1.1827999,-9.3944,2.5523999,jog
-3.5452,-1.3069898,0.08576548,-3.1696,1.7691,-16.6556,0.9533,-9.379,2.7007,jog
-4.1231656,-1.4227226,0.68301713,4.4319997,5.1812,-14.2407,0.67719996,-9.4176,2.6492,jog
-4.10093,-0.2767045,1.6481842,12.7175,8.7779,-6.7669997,0.4136,-9.5035,2.3834,jog
-3.8280656,0.41943753,0.8633271,14.068399,10.5479,-7.1731,0.2296,-9.5967,2.0049999,jog
-3.192783,2.4130747,-0.75783944,5.9983997,6.1878,-7.2015,0.2189,-9.6691,1.6215,jog
-3.1875298,3.8724668,-0.382454,-0.91139996,3.393,-4.7230997,0.3328,-9.7281,1.1927,jog
-3.9829285,-0.23410101,-0.33620277,-6.9799,3.7710998,-3.1246,0.45839998,-9.772699,0.67289996,jog
-3.7306936,-2.1773682,-0.2646792,-10.8041,4.8238,-1.3672,0.4482,-9.7958,-0.1037,jog
-3.4606562,-4.4825463,0.2962173,-6.8961997,-0.1392,-1.1802,0.3159,-9.7655,-0.83989996,jog
-2.5549874,-6.0227647,0.622716,1.5019,-10.4348,-4.8339,-0.011299999,-9.668799,-1.6384,jog
-1.263182,-5.0511227,0.50384164,-5.1647997,-23.623,3.5409,-0.1601,-9.513599,-2.3739,jog
0.14306463,-3.2360673,0.19980529,-6.2511,-24.3036,-5.2402997,0.1121,-9.342999,-2.9775999,jog
1.316275,-1.7856463,0.040090214,2.4277,-15.325,-9.0556,0.4357,-9.1327,-3.5458,jog
2.0487025,-0.816465,0.029373892,6.7553997,-10.1428995,-5.8749,0.4818,-8.7838,-4.3338,jog
2.954284,1.35832,0.24061109,3.895,-2.4833,-0.6699,0.3414,-8.4706,-4.9296,jog
3.4972908,2.5983763,0.6304304,2.2159,3.51,5.8841996,-0.1761,-8.1093,-5.5115,jog
3.2650223,2.3519185,0.39762092,-2.1069,6.5642,9.879399,-1.0409,-7.7802,-5.8782997,jog
2.6151838,2.1564415,0.1372876,-4.834,6.4273,10.658199,-1.6480999,-7.6334996,-5.9314,jog
1.4158111,0.64027405,0.27108455,-1.7162,6.7513,9.5692,-2.0985,-7.6436996,-5.7739997,jog
-0.102607906,0.00026179937,0.35501742,-0.3328,8.2956,9.9438,-2.2855,-7.7759,-5.521,jog
0.998084,4.7514668,-0.0143117,-3.8007998,10.817599,11.7205,-2.3773,-7.9933,-5.1598997,jog
2.6180463,6.3604336,-0.07538077,-0.5521,9.5103,5.733,-2.2819,-8.2747,-4.7425,jog
-3.7139385,-6.357798,1.0861708,4.398,7.0298,1.7781,-2.1425,-8.589,-4.2199,jog
3.3893247,3.9457183,1.9211886,3.2902,3.112,-2.7733998,-2.0349,-8.8097,-3.797,jog
4.2856736,4.038465,-0.32218778,0.0502,2.0499,-11.1367,-1.9037,-8.993,-3.4162998,jog
1.0759257,2.0067797,-0.79634136,3.7442,3.3686,-6.7098,-1.9102999,-9.076099,-3.185,jog
2.6266682,-0.39655626,0.5998522,10.967299,10.0462,29.7797,-1.9746,-9.055699,-3.2036998,jog
3.4464493,-2.4258156,1.0681067,-8.9431,10.698999,0.83199996,-1.6675999,-9.1202,-3.1954,jog
4.417044,-1.8291225,1.1325266,-15.169399,-22.269999,-7.0081,-1.2271999,-9.2975,-2.8671,jog
4.434498,-1.5538317,0.77707297,12.116699,-9.580999,35.7607,-1.7608999,-9.061399,-3.3105,jog
3.8627279,0.5536882,0.36875317,24.709,-2.9601,12.1409,-1.8693,-9.2001,-2.8344,jog
3.0009017,0.41496947,0.5828178,14.8749,-9.863299,-11.729899,-1.6064999,-9.4262,-2.1757998,jog
2.1232455,0.50794315,1.044981,2.9991,-13.658199,3.8363998,-1.3712,-9.4952,-2.032,jog
1.2871454,1.9868305,1.6172744,-2.4524,-12.081599,6.6584,-1.4995999,-9.5713,-1.5196999,jog
0.8459087,1.6928647,1.8824074,-2.3734,-8.6722,4.1266,-1.7845999,-9.6171,-0.70409995,jog
0.003752458,-0.9254783,1.3850933,0.6171,-9.9232,-4.5747,-1.9900999,-9.6018,0.122499995,jog
-1.5768701,-0.81503385,0.4870341,2.1304998,-17.077099,-9.429299,-2.1207,-9.518499,1.0349,jog
-1.7233555,0.47157052,-0.5372647,-0.84489995,-12.8223,-16.531599,-2.2145998,-9.3798,1.8118999,jog
-2.3263144,-0.6376735,-0.82672757,-4.4389,-3.0033998,-12.34,-2.3276,-9.245,2.2979999,jog
-3.0852184,-2.7119274,-0.650554,-1.5742999,3.4206,-7.7226996,-2.5444,-9.088799,2.6625,jog
-3.403811,-3.297625,-0.21109757,6.6124,7.1773996,-7.4154997,-2.984,-8.9131,2.7965,jog
-3.7139559,-2.161346,0.10815805,15.4902,9.8512,-17.7404,-3.3692,-8.7627,2.8342,jog
-3.7849734,0.6411467,0.079150684,20.423899,7.4799,-12.6044,-3.5760999,-8.6567,2.9055998,jog
-3.977588,-0.41999602,-0.4593183,15.9379,7.3417997,-1.5742999,-3.6109,-8.7049,2.7117999,jog
-3.7358773,-1.562506,-1.3851806,6.2865,6.5462,-6.6025,-3.5405998,-8.8310995,2.3758,jog
-4.5620985,-0.82552326,-1.20789,-2.1067998,5.5088997,-6.2906,-3.3651998,-8.9902,2.0051,jog
-4.452911,-1.5605513,-0.66491807,-3.8149998,4.5593,-4.8187,-3.128,-9.1586,1.5825,jog
-3.6415422,-2.3929162,-0.9140813,-1.5007,2.4889998,-0.9453,-3.0103,-9.2556,1.2002,jog
-3.1496387,-2.8969674,-1.6346579,3.3723,-4.0057,-0.701,-2.9898,-9.3215,0.5834,jog
-2.5705733,-3.929731,-1.767303,10.3609,-19.134499,-4.7377996,-3.0059,-9.3341,-0.087,jog
-2.1083577,-4.714152,-1.7220291,6.2875,-26.733,2.0797,-2.9238,-9.3259,-0.8048,jog
-1.3795606,-3.6532707,-1.3723174,-1.4891,-21.494799,-2.5944,-2.6785998,-9.317599,-1.4753,jog
0.02617994,-1.8791262,-1.2275075,-5.1646,-18.1178,0.4432,-2.5040998,-9.223,-2.1986,jog
1.9788369,0.22417009,-1.014717,1.1459,-13.9825,-1.3863,-2.46,-9.0042,-3.007,jog
3.4488578,2.0725958,-0.97062993,4.013,-11.4106,0.8124,-2.4536998,-8.810599,-3.5386,jog
3.8916304,2.319333,-0.7767588,2.7043998,-7.8437,5.2026997,-2.3906,-8.6706,-3.9081998,jog
3.260694,1.5607083,-0.42196825,0.9422,-1.6609,10.948999,-2.4033,-8.5478,-4.1628,jog
2.0020497,0.46544442,-0.31731832,-2.7652,8.2975,14.177099,-2.5205,-8.4446,-4.3018,jog
0.36662385,-0.621983,-0.41959462,-1.8750999,16.8831,15.130199,-2.5965998,-8.4004,-4.3427997,jog
-0.70935416,-0.35459855,-0.5704783,-2.421,19.145199,14.832999,-2.5509,-8.465799,-4.2418,jog
-1.2956277,3.5656204,-0.4073773,-0.073199995,15.0028,10.9313,-2.3392,-8.6971,-3.8802998,jog
2.0809386,6.700965,-0.39868554,1.6564,9.363999,3.257,-2.0486999,-8.962,-3.4139,jog
-1.8928444,-8.85875,-0.75752527,1.8731999,5.9135,-2.1927,-1.7358999,-9.2575,-2.7301,jog
-1.9833921,6.433423,2.1862342,0.0654,3.0414,-8.6172,-1.5952,-9.4158,-2.2289,jog
3.2714975,-0.091839224,-0.021170843,-1.0138999,0.8189,-12.3256,-1.5160999,-9.5076,-1.8646,jog
2.6305952,1.0158689,-1.0179982,-0.1494,2.5118,-5.8726997,-1.4588,-9.5334,-1.7764,jog
2.904699,0.31000537,1.1485838,3.5892,9.817599,9.5018,-1.3629999,-9.523399,-1.9016999,jog
3.6373882,-1.1751127,0.9443453,-0.5782,14.3832,32.0986,-1.1379,-9.479899,-2.2374,jog
4.3164783,-1.1637856,0.9451656,-0.9661,-17.1478,-73.4146,-0.7794,-9.5752,-1.969,jog
4.598349,-0.15397294,0.043074727,3.0760999,-29.566198,58.295,-1.0265,-9.5034,-2.1912,jog
3.7131531,0.5199859,0.27499408,10.532,2.7844,14.0483,-1.1176,-9.374499,-2.6529999,jog
2.6748567,0.93666583,1.0004227,-0.4903,2.5851998,-8.0192995,-1.1179,-9.528299,-2.0324,jog
2.0102878,1.624151,1.4064038,0.5987,-12.2258,12.1396,-0.8635,-9.652699,-1.4994,jog
1.0920177,2.2001796,1.869073,2.5765998,-19.388199,1.7245,-1.0565,-9.6982,-0.9988,jog
0.17510888,0.7121816,1.6833177,4.7558,-14.6175995,3.6483,-1.2549,-9.7224,-0.265,jog
-1.241348,-0.86498517,0.6205169,4.0892,-8.5271,-4.1236,-1.4512,-9.674,0.6913,jog
-2.1799161,0.88879144,-0.41489968,-4.8598,-13.1199,-12.113199,-1.4555999,-9.582399,1.4926,jog
-2.1048846,0.6413387,-0.86412996,-6.1145997,-10.810699,-14.4809,-1.5345,-9.4203,2.2519999,jog
-2.9267077,-1.6300677,-0.7062824,-4.2278,-3.2017999,-11.4318,-1.7443,-9.2722,2.6743999,jog
-3.2779202,-2.755229,-0.33166492,1.4376999,3.7991,-8.1202,-2.0946999,-9.1045,2.9815,jog
-3.6008062,-2.226377,-0.25989696,11.9604,9.9221,-13.628099,-2.5656,-8.9512,3.0760999,jog
-3.57693,-0.13473941,0.04462807,16.7363,9.2406,-18.9746,-2.909,-8.8483,3.0681999,jog
-4.0239263,-0.34779176,-0.08990191,16.9124,8.5526,-5.5955997,-2.9673998,-8.886,2.8988,jog
-3.7958293,-2.3831773,-1.0930823,8.746099,8.4095,-4.1228,-2.9406,-9.0273,2.4556,jog
-3.5681336,-0.27982864,-1.4686247,0.6448,6.4944,-7.1643996,-2.8121,-9.171599,2.0355,jog
-4.0739303,-1.24339,-1.1973307,-0.89809996,4.7950997,-4.7012997,-2.6224,-9.316,1.5827,jog
-3.5734918,-2.2182786,-1.1855673,0.6913,2.8214,-3.7077,-2.4859,-9.4212,1.1089,jog
-3.0035195,-2.9618237,-1.6622341,-0.0391,-0.7301,-0.2529,-2.3927999,-9.498099,0.47849998,jog
-2.5915346,-4.1686664,-1.5952483,5.7841997,-13.0785,-5.8064,-2.4009,-9.5061,-0.1951,jog
-2.0532577,-4.835714,-1.3952686,9.3701,-26.7316,1.4032999,-2.3876998,-9.4647,-0.9424,jog
-1.0419441,-3.5181124,-1.031734,-1.7569,-24.9842,-0.9335,-2.2539,-9.427199,-1.4886,jog
0.3022212,-1.6570331,-0.8774119,-4.7490997,-17.000399,-3.3637,-1.9879999,-9.359799,-2.1475,jog
1.8199072,-0.0970054,-0.8806757,-0.0844,-12.53,-2.1739,-1.8277999,-9.2015,-2.8567998,jog
3.3021455,2.4033184,-0.65064126,3.5298998,-8.6827,1.1614,-1.7450999,-8.9986,-3.4856,jog
4.0516596,3.4948647,-0.52895695,1.6449,-5.8396997,4.8382998,-1.6743,-8.8506,-3.8772998,jog
3.5383234,2.9775665,-0.33569664,1.1201999,-0.71529996,10.6442995,-1.7379999,-8.6793995,-4.2209997,jog
2.350749,2.0392253,-0.19256218,-3.8212,7.2419996,13.5019,-1.8959999,-8.5659,-4.3817,jog
0.40250784,-0.017994344,-0.29047516,-2.8834999,13.967099,13.6105995,-2.0295,-8.5146,-4.4217,jog
-1.4080793,-1.2297416,-0.54637533,-2.9378998,15.8334,14.0018,-2.0242,-8.5765,-4.303,jog
-1.6147088,4.456192,-0.50817007,-3.1316,15.488999,13.4373,-1.8794999,-8.7617,-3.9836998,jog
0.09393362,2.6442611,-1.1863701,0.1917,11.668699,6.5780997,-1.5841999,-9.0307,-3.4792,jog
-2.3256862,0.06885324,0.05787512,0.8739,7.2370996,-1.2126,-1.2366999,-9.3259,-2.7688,jog
1.5756134,-0.46130797,0.13222614,0.477,3.6474,-7.9683,-1.0458,-9.4921,-2.2305,jog
4.74747,3.403968,-0.8527155,-0.62299997,-0.85279995,-18.4383,-0.9263,-9.5912,-1.8220999,jog
2.0823,-0.07871435,0.5680348,1.6949999,-0.58809996,-13.4948,-0.87119997,-9.6108,-1.7445999,jog
2.970306,-1.1867017,1.9990478,8.5302,5.8701997,19.744099,-0.8124,-9.5673,-1.9941,jog
4.066914,-2.0994565,1.3364335,0.0602,-2.7251,-22.3802,-0.5211,-9.5036,-2.3618,jog
4.472982,-0.7635816,0.5114513,-12.9998,-19.5702,31.1841,-0.1704,-9.5163,-2.3623,jog
3.6845646,0.45697954,-0.12842132,1.8350999,7.2777,7.3725,-0.1778,-9.3959,-2.8026,jog
3.0225437,0.74410367,0.16233307,7.6900997,2.9183,17.536999,-0.2272,-9.479,-2.5033998,jog
2.5033782,0.18907152,0.84149307,-3.6750998,-15.4886,-9.3654995,0.076,-9.6751995,-1.5982,jog
1.7758725,1.4986095,1.3839065,-1.1208,-18.2153,8.4119,-0.0363,-9.7335,-1.1941999,jog
0.8226609,2.145219,1.4331945,4.6844,-11.0616,5.1296,-0.4479,-9.7774,-0.6087,jog
0.4619712,0.3753505,0.93872535,6.8622,-8.2996,-2.0495,-0.74289995,-9.774,0.2941,jog
-0.77284926,-0.58222437,0.08464847,1.3428,-15.599799,-6.6794,-0.8231,-9.7109995,1.0896,jog
-1.2315392,0.53590333,-0.67706555,-3.9447,-13.3602,-13.601399,-0.8114,-9.6069,1.7942,jog
-1.6209047,-0.030979594,-1.0525557,-5.8441,-4.7409997,-12.8615,-0.87329996,-9.4786,2.3586,jog
-2.5563314,-1.9863069,-0.62409484,-2.2240999,1.8208,-10.6908,-1.0415,-9.3327,2.8258998,jog
-3.2715323,-2.5353525,-0.4266283,4.6134,7.4870996,-4.717,-1.387,-9.1935,3.1185,jog
-3.517397,-1.4810514,-0.13585643,10.8363,11.3418,-11.0265,-1.7847999,-9.0961,3.2008,jog
-3.305671,0.69766045,0.16783085,14.6886,7.962,-15.410899,-1.9792,-9.0309,3.2703,jog
-3.7063115,0.7204719,0.08683013,13.3916,7.6161,-4.2416,-1.9570999,-9.0773,3.1531,jog
-3.4996994,-0.46581092,-0.9495638,5.5439,7.6085997,-7.0606,-1.8565999,-9.1875,2.883,jog
-3.6472144,0.7368606,-1.167922,-3.6452,5.2139997,-8.8407,-1.6601,-9.3132,2.5839999,jog
-3.7949567,-1.0161133,-0.73551667,-4.7385,3.9592,-5.4934998,-1.469,-9.4411,2.2082,jog
-3.4284549,-2.2100232,-0.4505742,-6.6731997,3.2638998,-3.0284,-1.2896999,-9.5794,1.6553999,jog
-2.7403588,-1.5494684,-0.5685235,-2.8848999,-2.6991,-1.7797999,-1.224,-9.6768,1.0149,jog
-1.8646574,-2.7404637,-0.7952767,6.4635997,-16.5637,-3.2489,-1.2660999,-9.717999,0.3559,jog
-1.2864473,-3.125361,-1.0031279,4.1277,-27.808699,3.497,-1.2838,-9.7115,-0.4569,jog
-0.58751273,-3.132325,-1.0516307,-7.3485,-21.4223,-3.3253,-1.1243,-9.684299,-1.0581,jog
0.5041209,-2.074795,-0.9496685,-9.203199,-16.55,-2.4791,-0.87799996,-9.604199,-1.7768999,jog
2.0181592,0.021240657,-0.77304125,-1.9843999,-11.139299,-0.6836,-0.78099996,-9.454599,-2.4838998,jog
3.3589385,2.1025283,-0.459423,3.9480999,-4.5959997,1.9632,-0.81979996,-9.2705,-3.0909998,jog
3.6533756,2.6686084,-0.014049901,4.192,-3.1316,4.5401,-0.8186,-9.097199,-3.5691998,jog
2.7852314,2.0263796,0.38662532,2.4643,0.064399995,7.87,-0.8854,-8.959,-3.8885,jog
1.1985874,0.42062435,0.24652776,-2.0238,6.1377997,11.4674,-0.9475,-8.883699,-4.0436997,jog
-0.5563412,-0.77747434,-0.13821262,-2.4587,13.5708,12.955899,-1.0225999,-8.8538,-4.0906997,jog
-1.3834003,-0.31871456,-0.35018286,-3.6764,17.8084,15.4424,-1.0209,-8.9137,-3.9587998,jog
-0.8611978,5.989464,-0.3169867,-2.4006,15.2627,11.2034,-0.8944,-9.064899,-3.6327,jog
0.8913222,4.4366093,-0.515675,-2.2921,8.8259,3.1957998,-0.6694,-9.296599,-3.0486999,jog
-3.99738,-4.620602,0.034278266,-1.4692,4.2981997,-3.304,-0.5214,-9.4957,-2.3936,jog
0.44184756,3.9276714,0.66104347,-0.364,1.128,-11.8665,-0.5087,-9.6108,-1.8822999,jog
3.7571876,0.8610582,-1.2525704,-1.4754,0.1026,-13.7729,-0.5446,-9.6543,-1.6333,jog
1.43679,0.6415132,0.54360026,-0.19129999,3.9313,-6.2797,-0.5441,-9.6388,-1.7224,jog
2.736048,-1.0728015,1.3477433,6.4314,12.229099,24.226799,-0.4886,-9.5911,-1.9854,jog
3.2981312,-2.23266,1.0935535,-7.5727,3.7282999,1.5813999,-0.145,-9.5535,-2.2089999,jog
3.4194317,-1.7204409,0.6523866,-5.1744,-32.413998,32.5064,0.114199996,-9.5878,-2.0567,jog
2.9691193,-0.32002357,0.0014137167,17.867699,2.0377,29.5003,-0.117599994,-9.3927,-2.8163998,jog
2.755683,0.27447048,0.20851448,12.6939,4.9347,8.3875,-0.023699999,-9.4163,-2.7389,jog
1.9741594,-0.22987731,1.1080921,-3.4132,-11.0799,-2.1257,0.2555,-9.5924,-2.0224,jog
1.0558544,0.48144907,1.9714366,-1.2048,-14.8579,6.4013996,0.1751,-9.6488,-1.7433,jog
0.57271236,1.2743173,2.0232556,0.5879,-11.632,2.7291,-0.1466,-9.7366,-1.16,jog
0.5254488,0.6390174,1.6551656,5.9339,-7.8886,-1.6854,-0.37359998,-9.7829,-0.57,jog
0.01569051,-0.61967915,1.0111041,1.7839999,-10.7816,-6.6067,-0.5092,-9.7927,0.1147,jog
-0.7176096,-0.39413026,0.31204742,-4.161,-10.786099,-11.731199,-0.5068,-9.768499,0.69879997,jog
-1.4516776,-0.89682,-0.035377823,-8.1064,-4.4965997,-12.931999,-0.5528,-9.7130995,1.2327,jog
-2.3226666,-1.9538786,-0.0046251225,-4.9957,2.4442,-7.6095996,-0.7607,-9.6423,1.6178,jog
-3.174213,-2.5413914,0.41254348,2.1173,6.4020996,-3.8309,-1.1955,-9.5598,1.8304,jog
-3.3685727,-1.748401,0.9382715,9.0716,10.1187,-6.3750997,-1.6284,-9.481299,1.9032999,jog
-3.5943136,0.063093655,0.96516705,13.7687,9.8316,-8.875899,-1.9320999,-9.4099,1.972,jog
-3.514971,-0.34552282,-0.4931079,13.4633,8.0838995,-6.2952,-2.0974,-9.3686,1.9998,jog
-3.0229452,-0.7890808,-1.9025136,5.4649997,6.6471996,-5.9614,-2.1406,-9.3833,1.8817999,jog
-3.670183,0.78578216,-1.6309403,-2.4087,6.6509,-6.1576,-2.1022,-9.436,1.6465,jog
-3.5014098,-0.8683362,-1.2493241,-6.4241,5.0483,-6.0172,-2.039,-9.5103,1.2512,jog
-2.610681,-3.2406924,-1.2964306,-4.5762,2.7479,0.20009999,-2.0628,-9.5536995,0.79999995,jog
-2.5857577,-2.8395808,-1.4893767,5.9898996,-4.8673997,-0.43699998,-2.2240999,-9.5483,0.2311,jog
-2.0603786,-2.285875,-1.6517098,14.9407,-17.816,-2.0830998,-2.4078,-9.495399,-0.4567,jog
-1.5258018,-3.5772443,-1.2443849,4.5555997,-27.8505,2.7154999,-2.3197,-9.463699,-1.1072,jog
-1.1743274,-4.0996737,-1.3537123,-5.3345,-19.4672,-2.6004,-1.9812,-9.462299,-1.6458,jog
-0.25769785,-3.5057206,-1.3579708,-6.2667,-15.9393,0.1721,-1.6078999,-9.3618,-2.4373999,jog
0.89097315,-1.9971802,-0.8780577,0.8628,-11.192699,-0.38349998,-1.4413999,-9.2246,-2.9996998,jog
2.0847085,-0.35609952,-0.22802727,4.4312,-5.3601,4.2489,-1.4108,-9.0948,-3.3859,jog
2.6979823,0.14695673,0.34650022,0.6588,-4.0039997,6.6282997,-1.3453,-8.9505,-3.7745998,jog
2.342424,0.0150621915,0.62901664,-1.2008,-0.8088,8.5149,-1.2312,-8.8310995,-4.0822997,jog
1.1461054,-0.9783094,0.3444931,-0.022599999,5.5678,13.0562,-1.311,-8.7353,-4.2595997,jog
-0.53817225,-2.1430025,0.13173746,-1.7462,11.3617,13.4316,-1.4408,-8.6648,-4.3605,jog
