rotationRate.x,rotationRate.y,rotationRate.z,userAcceleration.x,userAcceleration.y,userAcceleration.z,gravity.x,gravity.y,gravity.z,class
0.18610446,-0.029810224,0.20827013,-0.80829996,-1.2335,-0.0411,-6.3205,-2.1799,7.1741,sit
0.24122195,0.00853466,0.11723377,-0.4068,-1.3012999,-0.1918,-6.329,-2.1389,7.1789,sit
0.1725956,0.033737216,0.07913323,-0.0058999998,-1.5385,0.3035,-6.3504996,-2.0918,7.1738997,sit
0.21797417,0.020053834,0.049061205,0.064399995,-0.7815,0.1516,-6.3945,-2.0109,7.1579,sit
0.23905775,-0.029338984,0.020228365,0.4517,2.158,-0.3716,-6.409,-1.9504999,7.1615996,sit
0.24096015,-0.08792969,-0.006754424,-0.0927,1.2836,-0.051799998,-6.415,-1.8989999,7.1700997,sit
0.23270474,-0.15591027,-0.023020893,-0.5476,0.3006,-0.0112,-6.4265,-1.8536999,7.1717,sit
0.23277456,-0.12966052,-0.0029146997,-0.124299996,0.6573,-0.14029999,-6.43,-1.7987,7.1826,sit
0.24214698,-0.08496263,-0.004886922,-0.2777,0.3669,0.035,-6.4349,-1.7572999,7.1884,sit
0.21294762,-0.09260717,-0.023038346,-0.4297,0.198,-0.0394,-6.4428,-1.7253,7.1891,sit
0.18491763,-0.059376102,-0.01993166,-0.412,0.4799,-0.2067,-6.4477997,-1.6902,7.1928997,sit
0.17903587,-0.002042035,-0.029373892,-0.19119999,0.3369,-0.2302,-6.4447,-1.6553999,7.2037997,sit
0.1531352,0.010925761,-0.034435347,0.17819999,0.27269998,-0.13319999,-6.4322,-1.6235,7.2222,sit
0.14795156,-0.04886922,-0.03748967,0.1951,0.2015,-0.132,-6.4091997,-1.5945,7.2490997,sit
0.13829988,-0.06084218,-0.07007497,-0.014099999,0.0254,0.12539999,-6.3905997,-1.5626,7.2724,sit
0.14864969,-0.08480555,-0.11039207,0.0359,0.2093,-0.20179999,-6.3785,-1.5292,7.2900996,sit
0.122539565,-0.04096288,-0.106325455,0.0924,0.2446,-0.2685,-6.3647,-1.5021,7.3078,sit
0.1123643,-0.021205751,-0.086725414,0.0001,0.2175,-0.1391,-6.3557997,-1.4785999,7.3202996,sit
0.09646435,-0.022759093,-0.11173598,0.0009999999,0.0664,0.0346,-6.355,-1.457,7.3252997,sit
0.084665924,-0.040404372,-0.1309346,0.0493,-0.0335,-0.2645,-6.356,-1.4397999,7.3278,sit
0.08040732,-0.070581116,-0.12091641,0.19749999,0.037499998,-0.3455,-6.3482,-1.4237,7.3378,sit
0.088540554,-0.08421214,-0.08468337,0.1994,0.1586,-0.1201,-6.3374996,-1.413,7.349,sit
0.091402896,-0.08566076,-0.1060113,0.2084,0.0106999995,-0.092099994,-6.3222,-1.406,7.3634996,sit
0.10681415,-0.075049154,-0.14273302,-0.051999997,-0.2905,0.06,-6.3135,-1.4022,7.3717,sit
0.12728687,-0.07326892,-0.17954202,-0.0313,-0.0981,-0.2031,-6.3083997,-1.3974,7.377,sit
0.13346533,-0.06850417,-0.24839526,-0.0365,0.0539,-0.24759999,-6.3023996,-1.398,7.382,sit
0.13184217,-0.09334021,-0.27918285,-0.18949999,0.0839,-0.282,-6.2934,-1.4027,7.3887997,sit
0.16156512,-0.015795229,-0.28370327,-0.1201,-0.0486,-0.1908,-6.2802,-1.4067,7.3992,sit
0.13948672,0.052935835,-0.24462534,-0.1626,0.0338,-0.0442,-6.2661,-1.4045999,7.4115996,sit
0.13295919,0.0877377,-0.22305308,-0.1669,0.30629998,-0.0174,-6.2513,-1.4045,7.4241,sit
0.15760323,0.058503438,-0.23001695,-0.2504,0.2473,-0.0692,-6.237,-1.4064,7.4357996,sit
0.18781488,-0.022689281,-0.2526364,-0.117699996,0.3276,-0.110199995,-6.2219,-1.4094,7.4477997,sit
0.21663027,-0.04363323,-0.27689648,0.0045,0.46789998,-0.1026,-6.2054,-1.4196999,7.4596,sit
0.25232226,-0.058660515,-0.32477087,0.12529999,0.341,0.19929999,-6.184,-1.434,7.4747,sit
0.2967758,-0.06738716,-0.3816337,0.2314,0.0905,0.12539999,-6.1737,-1.4445,7.4810996,sit
0.3094294,-0.06026622,-0.4476944,0.2015,-0.29119998,0.19739999,-6.1747,-1.4538,7.4785,sit
0.3238633,-0.0659909,-0.5290791,0.0063,-0.31129998,0.1019,-6.1815996,-1.4617,7.4712996,sit
0.2817834,-0.038414698,-0.5772502,-0.23189999,-0.3721,-0.0967,-6.1840997,-1.4674,7.4680996,sit
0.21790436,-0.0450644,-0.6161012,-0.347,-0.57229996,-0.0346,-6.1738997,-1.4718,7.4756,sit
0.16332792,-0.15353662,-0.5835683,-0.34739998,-0.55799997,-0.0128,-6.1598997,-1.4749,7.4866,sit
0.14301229,-0.29764846,-0.5186595,-0.283,-0.34899998,0.084,-6.1421,-1.4785999,7.5004997,sit
0.106744334,-0.29480356,-0.47930232,-0.2812,-0.43359998,0.0799,-6.1212997,-1.4825,7.5167,sit
0.07150614,-0.23856905,-0.46792278,-0.4197,-0.52779996,0.1422,-6.0972,-1.4933,7.5340996,sit
0.07805113,-0.20629792,-0.43366197,-0.581,-0.664,0.419,-6.0745997,-1.5094,7.5491996,sit
0.121789075,-0.14196508,-0.35667548,-0.81939995,-0.746,0.4922,-6.0519,-1.5394,7.5613,sit
0.13035864,-0.032847095,-0.31848767,-0.78319997,-1.1868,0.176,-6.0267,-1.5843999,7.5722,sit
0.11695451,0.1869073,-0.3138451,-0.6515,-1.8379999,-0.1583,-5.9852,-1.6342,7.5944996,sit
0.1243198,0.34815827,-0.27609363,-0.11449999,-2.0628,0.1821,-5.9227,-1.6794,7.6334996,sit
0.12699015,0.49562114,-0.28598964,0.176,-1.8508999,0.5354,-5.8609,-1.7253,7.6707997,sit
0.11815879,0.46732935,-0.35376078,0.2417,-1.5891999,0.3313,-5.8072,-1.7752,7.7002997,sit
0.09341002,0.5900609,-0.4927588,0.24679999,-1.4315,0.2528,-5.7588,-1.8199999,7.7261,sit
0.060877085,0.65217716,-0.57339305,0.3554,-1.4848,0.1485,-5.7188997,-1.8513999,7.7482996,sit
0.11995648,0.607584,-0.46783552,0.6292,-1.4632,0.1264,-5.7018,-1.8731999,7.7556,sit
0.20059069,0.44102725,-0.29571113,0.71999997,-1.3923,0.2269,-5.717,-1.8986,7.7383,sit
0.22910938,0.28508207,-0.20975366,0.3037,-1.0433,-0.0694,-5.7584996,-1.918,7.7026,sit
0.23509584,0.3023434,-0.14856243,0.31579998,-0.38639998,-0.6712,-5.8222,-1.9375,7.6496,sit
0.19929914,0.3042807,-0.059166662,0.19319999,0.29,-0.6281,-5.8784,-1.9659,7.5992,sit
0.21568778,0.040631264,0.08283333,0.65139997,0.1713,-0.6071,-5.9469,-2.0151,7.5327997,sit
0.20245819,-0.05597271,0.20968385,0.3277,-0.76,-0.5897,-6.0206,-2.0795999,7.4563,sit
0.2184105,-0.14863224,0.3220656,-1.0106,-0.6466,-0.78779995,-6.0913997,-2.1227,7.3862996,sit
0.24511404,-0.21261601,0.3673569,-0.9497,0.2987,-1.0512,-6.1446,-2.1327999,7.3392,sit
0.25691247,-0.19785053,0.35945055,-0.7004,0.6422,-0.9551,-6.1786,-2.1275,7.3121996,sit
0.29935887,-0.20830505,0.35004324,-0.2447,1.0684,-0.82019997,-6.218,-2.1128,7.283,sit
0.38737583,-0.22366394,0.38187805,-0.15619999,1.75,-1.4872,-6.2616997,-2.0911999,7.2517,sit
0.39285615,-0.28349382,0.44975388,-0.0047,2.1696,-1.3187,-6.2734,-2.0478,7.2539997,sit
0.32360148,-0.32279864,0.5021487,-0.3852,2.9304,-0.91889995,-6.2767,-1.9884,7.2675996,sit
0.20210913,-0.2532822,0.46975538,-0.60749996,3.6162999,-0.8247,-6.271,-1.9114,7.2932,sit
0.12863077,-0.12100368,0.40830234,-0.574,2.7939,-1.1639999,-6.2572,-1.824,7.3272996,sit
0.14718361,-0.025848325,0.37510616,-0.3622,1.9711,-0.8451,-6.2444,-1.7355,7.3595996,sit
0.14741051,0.12643164,0.3450865,-0.375,1.4412999,-0.36749998,-6.2289996,-1.6416999,7.3940997,sit
0.14739305,0.24958208,0.29211575,-0.41,1.1316999,-0.38239998,-6.2113,-1.5308,7.4326997,sit
0.091088735,0.44910812,0.2054078,-0.4179,0.80509996,-0.0581,-6.1851,-1.4110999,7.4781,sit
0.060039327,0.5281366,0.13510594,-0.2774,0.2931,0.54359996,-6.1526,-1.2955999,7.5256996,sit
0.04944518,0.40577158,0.10629055,-0.1334,0.1286,0.7412,-6.1278996,-1.203,7.5611,sit
0.09161233,0.26289895,0.09185668,-0.21689999,0.11449999,0.9216,-6.1205997,-1.1293,7.5783997,sit
0.105260804,0.21059142,0.060981803,-0.0477,0.3055,0.7768,-6.126,-1.0569,7.5845,sit
0.09941395,0.08304276,0.04972443,-0.091299996,0.5764,0.5746,-6.1531997,-0.9881,7.5716996,sit
0.10847221,0.025429446,0.03164282,-0.2701,0.5959,0.6167,-6.2015,-0.9201,7.5407996,sit
0.09025098,-0.009546951,0.00853466,-0.4375,0.3611,0.8438,-6.2664,-0.8813,7.4916997,sit
0.052674036,-0.05745624,0.0054628807,-0.559,-0.1287,0.3732,-6.3483996,-0.8524,7.4255996,sit
0.046251226,-0.10293952,0.002984513,-0.5749,-0.4224,-0.5119,-6.4114,-0.829,7.3739996,sit
0.05576327,-0.12081169,-0.007592182,-0.6199,-0.3378,-0.37199998,-6.4529,-0.8016,7.3406997,sit
0.044279,-0.13638003,-0.017767452,-0.78429997,-0.24759999,-0.3094,-6.4860997,-0.7765,7.3141,sit
0.015882496,-0.14165092,-0.038728856,-0.59419996,-0.3119,-0.116,-6.5003,-0.754,7.3037996,sit
-0.020507619,-0.12817699,-0.064001225,-0.325,-0.2364,0.021599999,-6.5058,-0.7327,7.3011,sit
-0.0450644,-0.13809045,-0.10189232,-0.2312,-0.0909,-0.2893,-6.5058,-0.7173,7.3026,sit
-0.06536258,-0.13878858,-0.14631096,0.023599999,-0.1063,-0.2418,-6.4986997,-0.7079,7.3099,sit
-0.07169812,-0.090338245,-0.20329595,0.114599995,-0.0471,-0.20989999,-6.4846997,-0.6999,7.3230996,sit
-0.09608038,-0.04522148,-0.26427776,0.2085,-0.0061,-0.3015,-6.4679,-0.6918,7.3387,sit
-0.13770647,-0.04701917,-0.2918714,0.1818,0.16229999,-0.2877,-6.4484997,-0.6867,7.3561997,sit
-0.1282468,-0.059952058,-0.27180013,0.3193,0.2846,-0.2954,-6.4279,-0.6884,7.3740997,sit
-0.09993755,-0.06414085,-0.24127431,0.3281,0.3451,-0.176,-6.4087,-0.6985,7.3897996,sit
-0.06766641,-0.13730505,-0.21121974,0.5051,0.4632,-0.3487,-6.3873,-0.717,7.4066,sit
-0.044593163,-0.19257963,-0.17805849,0.6602,0.4816,-0.2771,-6.3648996,-0.74399996,7.4231,sit
0.018099064,-0.19889772,-0.18882717,0.6378,0.49879998,-0.2251,-6.3487,-0.7791,7.4335,sit
0.12135274,-0.18524924,-0.2356369,0.4843,0.4358,-0.2844,-6.3378997,-0.82559997,7.4375997,sit
0.22055726,-0.15168656,-0.28646088,0.1891,0.0116,-0.18069999,-6.3262,-0.88199997,7.4410996,sit
0.22001621,-0.05206317,-0.32136747,-0.5187,-0.2555,0.1884,-6.3129,-0.9346,7.4459996,sit
0.13805555,-0.044244096,-0.31744048,-0.9439,-0.3304,0.105,-6.2994,-0.9794,7.4515996,sit
0.08564331,-0.10056587,-0.28991663,-1.1143,-0.4719,0.29549998,-6.2755,-1.0156,7.4669,sit
0.05014331,-0.119834304,-0.25048965,-0.7852,-0.2297,0.1821,-6.2437997,-1.0440999,7.4895997,sit
0.021485003,-0.10157816,-0.21689206,-0.2481,0.1714,0.2674,-6.2105,-1.0644,7.5143,sit
0.012548917,-0.049968775,-0.18210766,0.0716,0.23089999,0.3015,-6.178,-1.0747,7.5396,sit
0.020891592,0.020001473,-0.14851007,0.1469,0.3196,0.4429,-6.1492996,-1.076,7.5628996,sit
0.027593656,0.049323004,-0.11618657,-0.0288,0.3111,-0.060799997,-6.1351,-1.0814999,7.5736,sit
0.01665044,0.029129544,-0.09162979,-0.2784,0.1695,-0.4736,-6.1222,-1.0988,7.5815997,sit
0.0011693706,0.026302112,-0.064001225,-0.53639996,0.00049999997,-0.3148,-6.1014,-1.1207,7.5951996,sit
-0.014974925,0.020786872,-0.023579398,-0.4592,-0.0756,-0.14209999,-6.0783,-1.1431,7.6102996,sit
-0.01563815,0.01425934,0.018744836,-0.23709999,-0.0925,0.038799997,-6.0585,-1.1658,7.6225996,sit
-0.014974925,0.006876597,0.05342453,-0.0705,-0.20699999,0.252,-6.0471997,-1.1856999,7.6285,sit
-0.009075712,0.0006457718,0.06831218,-0.0033999998,-0.2852,0.26569998,-6.0471,-1.2005,7.6263,sit
-0.0033510323,0.0032986724,0.06970845,0.1239,-0.339,0.071899995,-6.0522,-1.2106,7.6205997,sit
-0.0030019663,0.0066671576,0.06010914,0.08,-0.4172,-0.0401,-6.055,-1.2204,7.6168,sit
-0.001256637,0.012130038,0.041434117,-0.054399997,-0.5251,-0.046099998,-6.0576,-1.2279999,7.6136,sit
0.0017976891,0.029199358,0.017313667,-0.0519,-0.6254,-0.0233,-6.0604997,-1.234,7.6102996,sit
0.006143559,0.040194932,-0.0069987704,-0.0784,-0.5311,-0.0004,-6.0634,-1.2350999,7.6078,sit
0.0044505894,0.0421497,-0.027471483,-0.0853,-0.373,-0.0077,-6.066,-1.2319,7.6061997,sit
0.003996804,0.034470253,-0.037768926,-0.063,-0.1801,-0.015899999,-6.0681,-1.2258999,7.6056,sit
0.006981317,0.016842427,-0.044959683,-0.0316,0.0001,-0.0642,-6.0705,-1.2186999,7.6047997,sit
0.0063529983,0.007278023,-0.040805798,0.0198,0.189,-0.0831,-6.0733,-1.2123,7.6036,sit
0.0016929694,-0.005323254,-0.026581364,0.0128,0.3101,-0.0427,-6.0764,-1.2077,7.6018996,sit
-0.0040317103,-0.023579398,-0.004223697,-0.052699998,0.3545,-0.0115,-6.0815,-1.2054,7.5980997,sit
-0.007452556,-0.036320303,0.009616764,-0.14559999,0.2933,-0.066599995,-6.0878,-1.2052,7.5930996,sit
-0.008779006,-0.032358404,0.016947147,-0.20789999,0.23429999,-0.1204,-6.094,-1.2077,7.5877,sit
-0.0061784657,-0.026406832,0.02555162,-0.1919,0.129,-0.1837,-6.0989,-1.2116,7.5832,sit
0.0004363323,-0.032428216,0.022287855,-0.24589999,0.0446,-0.1498,-6.1008997,-1.2159,7.5808997,sit
0.0017278759,-0.030019663,0.016423548,-0.2635,-0.0784,-0.088599995,-6.1015997,-1.22,7.5796,sit
0.011292281,-0.02274164,0.0053407075,-0.253,-0.2215,-0.1266,-6.1008,-1.2232,7.5797997,sit
0.014695672,-0.012810716,-0.0055850535,-0.1558,-0.27719998,-0.1169,-6.0976996,-1.2246,7.5821,sit
0.014748032,-8.726646e-05,-0.013473942,-0.1294,-0.2267,-0.0309,-6.093,-1.2248,7.5857997,sit
0.013892821,0.0033510323,-0.017104227,-0.144,-0.1774,0.0241,-6.0889997,-1.2243999,7.5891,sit
0.0104370685,0.010192723,-0.024923302,-0.0499,-0.0994,-0.0084999995,-6.086,-1.2226,7.5916996,sit
0.0085870195,0.018081611,-0.030839968,-0.042999998,-0.0424,-0.0014,-6.082,-1.2200999,7.5952997,sit
0.00286234,0.016632987,-0.026232298,0.0411,0.0139,0.0341,-6.0782,-1.2179999,7.5986996,sit
-0.0033335788,0.010576695,-0.021746803,-0.0018,0.070599996,-0.0084,-6.0752,-1.2157999,7.6015,sit
-0.008674286,0.0069115036,-0.019338248,0.0049,0.088,-0.0014,-6.0733,-1.2142999,7.6032,sit
-0.015184364,0.0027576203,-0.012322024,0.022599999,0.076699995,0.0165,-6.0733,-1.2136999,7.6033998,sit
-0.019582594,0.00010471976,-0.0034208454,-0.0558,0.1055,-0.0326,-6.0736,-1.2135999,7.6031,sit
-0.023945916,-0.0013613568,0.0030194195,-0.0947,0.1055,-0.051999997,-6.0748997,-1.2149999,7.6018996,sit
-0.02300344,-0.007574729,0.008080875,-0.1228,0.0774,-0.0802,-6.0772,-1.2174,7.5996,sit
-0.012077678,-0.010367256,0.0043284167,-0.1303,-0.0084,-0.117199995,-6.0794997,-1.22,7.5973997,sit
-0.00832522,-0.012147492,-0.00010471976,-0.19669999,0.023599999,-0.124699995,-6.081,-1.2231,7.5957,sit
-0.00036651915,-0.008831366,-0.0024958209,-0.2147,0.0267,-0.1328,-6.0821,-1.2267,7.5941997,sit
0.008726646,-0.0004363323,0.0012217305,-0.1548,0.0009,-0.1019,-6.0828,-1.2305,7.5930996,sit
0.0011519173,0.011693706,0.0052359877,-0.1346,-0.044299997,-0.081199996,-6.0832,-1.2337999,7.5922,sit
-0.0037175512,0.037873644,0.005427974,-0.1047,-0.0703,-0.0607,-6.0836,-1.2372,7.5913,sit
-0.0022863813,0.063582346,0.004415683,-0.0749,-0.067,-0.030399999,-6.0831,-1.2397,7.5913,sit
0.0,0.06853908,0.008726646,-0.095,-0.0448,-0.0206,-6.0818996,-1.2412,7.592,sit
0.0018325957,0.064175755,0.009948377,-0.0276,0.0448,-0.0115,-6.0806,-1.2422999,7.5927997,sit
0.005323254,0.060388394,0.005846853,0.039699998,0.0557,0.016999999,-6.0794,-1.2427,7.5937996,sit
0.003630285,0.04935791,0.0012042772,0.117,0.0266,0.016099999,-6.0794997,-1.2413,7.5938997,sit
0.008098328,0.027977629,-0.005497787,0.1269,0.0155,0.0748,-6.0815,-1.2405,7.5924997,sit
0.012339477,0.0045204028,-0.012252212,0.0308,-0.0343,0.115399994,-6.0874,-1.2404,7.5878,sit
0.010419616,-0.01277581,-0.018221237,-0.0221,-0.0735,0.0613,-6.0971,-1.2404,7.5799,sit
0.005969026,-0.022863813,-0.019250982,0.0072,-0.103,-0.0484,-6.1078,-1.2394999,7.5715,sit
-0.001972222,-0.029461158,-0.015306537,-0.1095,-0.0843,-0.04,-6.118,-1.2380999,7.5635,sit
-0.009267698,-0.03382448,-0.008185594,-0.217,-0.036599997,-0.0712,-6.1275997,-1.2366999,7.5558996,sit
-0.014538593,-0.03614577,0.0006457718,-0.2368,0.0109,-0.13229999,-6.1355,-1.2361,7.5495996,sit
-0.01685988,-0.03452261,0.009110618,-0.24849999,0.0691,-0.175,-6.1403,-1.2354,7.5457997,sit
-0.016441,-0.02963569,0.017470745,-0.29279998,0.1175,-0.1909,-6.1414,-1.2349,7.5449996,sit
-0.0150796445,-0.020350538,0.022514747,-0.27199998,0.1463,-0.1704,-6.1398,-1.2353,7.5462,sit
-0.010925761,-0.010192723,0.021345377,-0.27359998,0.1173,-0.1716,-6.1366997,-1.2365,7.5485997,sit
-0.004537856,5.235988e-05,0.016702801,-0.2277,0.0499,-0.1348,-6.1326,-1.2385,7.5516,sit
0.004694936,0.007120943,0.0072954763,-0.173,0.0126,-0.0887,-6.1278996,-1.2407,7.555,sit
0.012426744,0.013299409,-0.00041887903,-0.099199995,-0.0046,-0.052899998,-6.1229997,-1.2428,7.5586996,sit
0.016144296,0.014905112,-0.0053930674,-0.015899999,-0.0614,0.0022,-6.1183996,-1.2442,7.5621996,sit
0.0155334305,0.014765485,-0.009704031,0.0186,-0.1188,0.0379,-6.1145,-1.2447,7.5652,sit
0.013177236,0.014643312,-0.012810716,0.053999998,-0.1281,0.0643,-6.1120996,-1.2444999,7.5671997,sit
0.011013027,0.011920598,-0.012496557,0.081,-0.118599996,0.091699995,-6.1110997,-1.2437,7.5681,sit
0.00715585,0.008360127,-0.010786135,0.060399998,-0.050699998,0.0809,-6.1113997,-1.2425,7.5681,sit
-0.0005410521,0.0012915436,-0.0041538836,0.0411,-0.0224,0.081,-6.1126,-1.2411,7.5673,sit
-0.0067195175,-0.0033684855,-0.0006981317,0.0030999999,0.0053999997,0.0425,-6.1145997,-1.2393,7.566,sit
-0.010768682,-0.007819075,0.0048694685,-0.0635,0.0233,-0.0050999997,-6.1168,-1.2375,7.5645,sit
-0.010419616,-0.010489428,0.0068416907,-0.0907,0.0705,-0.042799998,-6.1189,-1.2363,7.5629997,sit
-0.008499754,-0.0131946895,0.008028515,-0.1278,0.069299996,-0.0903,-6.1211,-1.2357,7.5613,sit
-0.0050440016,-0.012863076,0.0065275314,-0.1845,0.068799995,-0.1083,-6.1229997,-1.2355,7.5599,sit
-0.0006981317,-0.011309734,0.0037175512,-0.1924,0.029299999,-0.1166,-6.1243997,-1.2356,7.5586996,sit
0.0027052604,-0.0047298423,-0.00012217305,-0.22039999,0.0,-0.115399994,-6.125,-1.2362,7.5580997,sit
0.005427974,-0.00033161257,-0.0027750735,-0.1708,-0.0092,-0.0953,-6.1249,-1.2372,7.5579996,sit
0.004939282,0.0033859387,-0.0062308256,-0.1218,-0.0179,-0.0559,-6.1243,-1.2383,7.5583997,sit
0.0034382986,0.0044854963,-0.0061784657,-0.0832,-0.046299998,-0.026899999,-6.1232,-1.239,7.5590997,sit
0.00013962634,0.0070162234,-0.007574729,-0.054899998,-0.0455,0.0016999999,-6.1215997,-1.2393999,7.5603,sit
0.00015707963,0.0066147977,-0.0068242373,-0.0074,-0.045199998,0.00049999997,-6.1197996,-1.2393999,7.5618,sit
-0.0015184365,0.0037873646,-0.0030194195,-0.0092,-0.0157,0.0383,-6.1184998,-1.2391,7.5628996,sit
-0.003700098,0.0015184365,-0.0013089969,-0.0008,0.0133,0.0372,-6.1179,-1.2387999,7.5635,sit
-0.0043284167,-0.00076794485,0.00020943952,-0.021,0.0128999995,0.0268,-6.1177998,-1.2383,7.5635996,sit
-0.00418879,-0.003874631,0.0023038345,-0.040599998,0.0222,-0.0026999998,-6.1183,-1.2382,7.5632,sit
-0.0030543262,-0.0051138145,0.0030019663,-0.0892,0.0222,-0.0317,-6.119,-1.2384,7.5625997,sit
-0.0010471975,-0.005427974,0.0023387412,-0.1081,0.032199997,-0.0605,-6.1201,-1.2393,7.5614996,sit
0.00057595863,-0.005986479,0.0017627826,-0.1266,0.0232,-0.069299996,-6.1212997,-1.24,7.5604997,sit
0.0032463125,-0.004276057,0.0008726646,-0.1157,0.0142,-0.0682,-6.1219997,-1.2406,7.5597997,sit
0.001553343,-0.002984513,-0.002094395,-0.1149,-0.0047999998,-0.0479,-6.1225,-1.2413,7.5593,sit
0.0011693706,-0.00026179937,-0.00418879,-0.1046,-0.0139,-0.067,-6.1226997,-1.2419,7.559,sit
-0.00027925268,0.0008901179,-0.0032114058,-0.0848,-0.0133,-0.0275,-6.1224,-1.2422,7.5592,sit
-0.0011519173,0.0021642083,-0.0028099802,-0.0753,-0.022699999,-0.0179,-6.1219997,-1.2422999,7.5596,sit
-0.0030019663,0.0039095376,-0.00055850536,-0.046299998,-0.003,-0.018299999,-6.1214,-1.2422,7.5600996,sit
-0.0059166662,0.0038571777,0.0024085543,-0.0567,-0.0030999999,-0.0089,-6.1207,-1.2419,7.5606,sit
-0.006544985,0.0053407075,0.0050440016,-0.0574,-0.0033999998,-0.019299999,-6.1203,-1.2413,7.5611,sit
-0.00424115,0.004834562,0.004363323,-0.0774,0.0253,-0.0198,-6.1397,-1.2358,7.5462,sit
-0.0033161256,0.0058817593,0.0043284167,-0.0678,0.0099,-0.014699999,-6.1345,-1.2375,7.5502,sit
-0.0024783674,0.006457718,0.0012042772,-0.0632,0.021499999,-0.0187,-6.1598997,-1.2321,7.5302997,sit
-0.0010646508,0.004782202,0.00015707963,-0.0378,0.0063,-0.0184,-6.1638,-1.2330999,7.527,sit
-0.00036651915,0.005026548,-0.00019198621,-0.0142,-0.0023999999,0.0044,-6.1545997,-1.2358,7.5340996,sit
0.00059341197,0.0033335788,0.00066322513,-0.033299997,0.0001,-0.0026,-6.1468997,-1.2382,7.54,sit
0.0004363323,0.0010646508,0.0004363323,-0.0312,-0.0072,-0.0084999995,-6.1415,-1.2399,7.5441,sit
-0.00055850536,0.0008901179,-0.00029670598,-0.036599997,0.0042999997,0.0069,-6.1373997,-1.2411,7.5473,sit
-0.0009250245,-0.0032463125,0.00019198621,-0.050499998,0.015299999,-0.0158,-6.1348996,-1.2418,7.5491996,sit
-0.0015707964,-0.0051138145,0.00041887903,-0.0726,0.015999999,-0.0275,-6.1334996,-1.2425,7.5502,sit
-0.0015882496,-0.0056374134,0.0004712389,-0.054399997,0.0167,-0.0285,-6.1324997,-1.2429999,7.5509,sit
-0.00040142573,-0.0058817593,0.0020594886,-0.0848,0.0074,-0.039,-6.1322,-1.2434,7.5511,sit
-0.0012740904,-0.0065798913,0.0017453292,-0.0949,0.0077,-0.049,-6.1619,-1.2365,7.528,sit
-0.0011868239,-0.0053407075,0.0028448866,-0.0848,0.0106999995,-0.025899999,-6.1854,-1.235,7.509,sit
-0.00095993106,-0.0035430184,0.0009424778,-0.0613,-0.00049999997,-0.0167,-6.1938996,-1.234,7.5021,sit
-0.0015184365,-0.0013613568,0.0006457718,-0.042999998,-0.0015,0.009699999,-6.1942,-1.242,7.5006,sit
-0.0011868239,0.0007853982,0.0011868239,-0.0231,-0.023,0.021,-6.1759,-1.2427,7.5154996,sit
-0.0018849556,0.002042035,-0.00012217305,-0.0316,-0.0026999998,0.0061,-6.1622996,-1.2432,7.5266,sit
-0.00066322513,0.0037873646,0.00066322513,-0.0354,0.027199998,0.0047999998,-6.1521997,-1.2432,7.5347996,sit
-0.0013264503,0.0024085543,-0.00034906584,-0.055299997,0.027199998,-0.0033,-6.1446,-1.2434,7.541,sit
-0.0013962634,0.0041538836,0.00033161257,-0.0433,-0.0019999999,0.0002,-6.1391997,-1.2433,7.5453997,sit
-0.0024609142,0.0016929694,0.0015184365,-0.0389,0.0175,-0.0041,-6.1496997,-1.2353,7.5382,sit
-0.0006457718,0.0022340214,0.0021991148,-0.0284,0.0095,0.0030999999,-6.159,-1.2305,7.5312996,sit
-0.0022340214,0.0016755161,0.0022340214,-0.0191,0.0047,0.0001,-6.1649,-1.2281,7.5269,sit
-0.0013962634,0.00033161257,0.00066322513,-0.0033999998,0.0023,-0.0052,-6.1717997,-1.2299,7.521,sit
-0.0013613568,-1.7453292e-05,0.0015009831,-0.025899999,-0.0056,0.00059999997,-6.1763,-1.2304,7.5172,sit
-0.000715585,0.001134464,0.0009250245,-0.0312,-0.0052,0.0142,-6.1865997,-1.2382,7.5074997,sit
-0.0016755161,-0.0007853982,0.0009424778,-0.0111,-0.0071,-0.0053999997,-6.1749997,-1.2396,7.5167,sit
-0.0014137167,0.00022689281,0.00057595863,-0.0521,0.0039999997,0.0049,-6.177,-1.2399,7.5151,sit
-0.0007330383,0.00061086525,-0.00017453292,-0.030499998,-0.0053999997,0.026099999,-6.1858997,-1.2332,7.5088,sit
0.00017453292,-3.4906585e-05,-0.00013962634,-0.021599999,0.0074,0.0029,-6.1941,-1.2293,7.5028,sit
-0.0005061455,-0.00034906584,-0.00059341197,-0.013499999,0.0034999999,-0.0007,-6.1994996,-1.2274,7.4986,sit
-0.0026179939,0.00027925268,-0.00090757123,-0.0178,0.0016,0.0033999998,-6.2005997,-1.2291,7.4974,sit
-0.0027401668,0.001553343,-0.0024609142,-0.0167,-0.0064,0.0144,-6.1959,-1.2277,7.5014997,sit
-0.0012042772,0.00038397242,-0.0024085543,0.0079,0.0018999999,0.00049999997,-6.1952996,-1.2285,7.5017996,sit
-0.0014486233,-0.00013962634,-0.0014660766,-0.022,-0.0069999998,0.0296,-6.1933,-1.2294999,7.5034,sit
-0.001850049,-0.0016406095,-0.00017453292,-0.0142,-0.0061,0.028099999,-6.1938996,-1.2247,7.5035996,sit
-0.003403392,-0.0021467549,0.0008726646,-0.0234,0.0087,0.0278,-6.1937,-1.2241,7.5038996,sit
-0.002042035,-0.0005410521,0.0025307273,-0.0138,-0.0016,0.0177,-6.1935997,-1.2243,7.5038996,sit
-0.0018675023,0.0006457718,0.0011170107,-0.023699999,-0.0015,0.0275,-6.1935997,-1.2248,7.5038996,sit
-0.0010646508,0.00036651915,0.0010471975,-0.0139,-0.0009999999,0.0276,-6.1938,-1.2255,7.5035996,sit
-0.0010821042,0.0008901179,0.0021816615,-0.033299997,-0.00029999999,-0.0015,-6.1938996,-1.226,7.5035,sit
-0.0007853982,0.0013089969,0.0006457718,-0.0234,-0.0095999995,-0.0014,-6.1938,-1.2264,7.5034,sit
0.00029670598,0.0031764992,0.00085521134,0.0058,-0.009099999,-0.0014,-6.1935,-1.2267,7.5035996,sit
-0.0016406095,0.0016231562,0.0018151425,-0.0139999995,-0.0088,0.0278,-6.1632,-1.2372,7.5267997,sit
-0.00075049157,0.0006457718,0.0006457718,-0.0148,0.011299999,-0.0149,-6.1738997,-1.2298,7.5193,sit
-0.0014835298,0.0010471975,-3.4906585e-05,-0.0139999995,0.0039999997,0.0023,-6.1808996,-1.2274,7.5139,sit
-0.0011693706,0.0010646508,-0.0007853982,-0.0069999998,0.0016,-0.0019999999,-6.1840997,-1.2289,7.5109997,sit
-0.0004712389,0.0005410521,0.00012217305,-0.0234,-0.0067,0.0106,-6.1877,-1.227,7.5084,sit
-0.0005061455,-0.0010471975,-0.00026179937,-0.01,0.0011999999,0.0033999998,-6.1861997,-1.2286,7.5092998,sit
-0.0021467549,-0.0022165682,0.0004363323,-0.0115,-0.0069999998,0.0221,-6.1905,-1.2303,7.5055,sit
-0.002321288,-0.0029321532,0.00052359875,-0.016999999,-0.0053,0.0063,-6.1914,-1.231,7.5046997,sit
-0.0009424778,-0.0033161256,0.0010821042,-0.0162,-0.0045,0.0169,-6.1937,-1.2285,7.5031996,sit
-0.0011868239,-0.003822271,0.00075049157,-0.023599999,0.0026999998,0.0184,-6.1998,-1.2268,7.4983997,sit
-0.0016057029,-0.0016406095,0.0007330383,-0.0175,0.0009999999,0.0036,-6.2044997,-1.229,7.4941998,sit
-0.0009948377,-0.0025481808,0.0007330383,-0.022699999,-0.0064999997,0.0078,-6.2044997,-1.2291,7.4940996,sit
-0.0020769418,-3.4906585e-05,-0.00045378561,-0.022599999,-0.0064999997,0.0079,-6.2044,-1.2292,7.4941998,sit
-0.00090757123,0.00095993106,0.0,-0.0128999995,0.0033,-0.0019999999,-6.2040997,-1.2293999,7.4944,sit
-0.0009773844,0.00055850536,-0.00010471976,-0.0132,0.0036,-0.011899999,-6.2037,-1.2297,7.4947996,sit
-0.0009773844,0.00052359875,-6.981317e-05,0.0058999998,0.0039,0.0072,-6.2032,-1.2297,7.4951997,sit
-0.0005061455,0.00076794485,-0.00019198621,0.0053999997,0.0037999998,0.0264,-6.1714997,-1.2380999,7.5199,sit
-0.0009948377,0.00080285146,0.00029670598,-0.0164,0.0123,-0.007999999,-6.1793,-1.2311,7.5146,sit
-0.0013264503,0.0007853982,-0.00012217305,-0.0184,0.0052,0.0069999998,-6.1794,-1.2366999,7.5136,sit
-0.0009424778,0.0,-0.00052359875,-0.0084999995,-0.008599999,0.007999999,-6.1822996,-1.2322,7.5119996,sit
-0.0009250245,-0.00034906584,-0.00045378561,-0.0154,0.0064,0.0095999995,-6.1839,-1.2327,7.5105,sit
-0.00061086525,-0.0006283185,-0.000715585,-0.0138,-0.0028,0.0111,-6.1896996,-1.2358,7.5053,sit
-0.00075049157,0.00012217305,-0.002391101,-0.0276,-0.0095,0.0064999997,-6.1921997,-1.2348,7.5034,sit
-0.0009948377,-0.00080285146,6.981317e-05,-0.0251,-0.0007,0.018199999,-6.1942,-1.2343999,7.5017996,sit
-0.002635447,0.00019198621,0.00019198621,-0.0133,-0.0011999999,0.01,-6.1974998,-1.2307999,7.4996996,sit
-0.001850049,-0.0002443461,0.0011170107,-0.0198,0.0049,0.0121,-6.2033997,-1.2284,7.4951997,sit
-0.00036651915,0.001134464,-0.0008901179,-0.023699999,0.0025,0.0067999996,-6.2086997,-1.2221,7.4918,sit
-0.00045378561,-0.0026703537,-0.0010297443,-0.008599999,0.006,0.00029999999,-6.2086,-1.2222999,7.4919,sit
-0.0016057029,-0.0017802358,-0.0019198621,-0.0185,-0.0034999999,0.0199,-6.2085,-1.2224,7.4919,sit
-0.0023561944,0.00027925268,-0.00413643,0.0009,-0.0033,0.0297,-6.2084,-1.2228999,7.4919,sit
-0.00095993106,0.0010995574,-0.003752458,0.030199999,-0.0127,0.00029999999,-6.2082996,-1.2229999,7.4919996,sit
-0.00036651915,0.0,-0.0024260078,-0.009,-0.0223,0.059,-6.2082996,-1.2234,7.4919,sit
-0.00090757123,-0.0005410521,-0.000715585,0.0007,-0.0121,0.0198,-6.2082996,-1.2235999,7.4919,sit
-0.0025307273,-0.0023736479,0.0002443461,0.00059999997,-0.012,0.0198,-6.2084,-1.2236999,7.4918,sit
-0.0013613568,-0.0013962634,0.00034906584,-0.0089,-0.0019999999,0.010199999,-6.2079997,-1.2239,7.4921,sit
-0.001012291,-0.00026179937,-3.4906585e-05,-0.0094,-0.0018,0.0295,-6.2075996,-1.2243999,7.4923,sit
-0.00020943952,-6.981317e-05,-0.00045378561,-0.009699999,-0.0013,0.0195,-6.1688,-1.24,7.5218,sit
-0.0006283185,0.00031415926,-0.0006283185,-0.0387,0.0042999997,-0.0197,-6.157,-1.2451,7.5305996,sit
-0.00012217305,0.0011170107,0.00029670598,-0.070199996,-0.01,-0.0285,-6.1900997,-1.2326,7.5055,sit
-0.00017453292,0.00013962634,-0.00017453292,-0.0174,0.0067,-0.0132,-6.1948,-1.2343,7.5013,sit
3.4906585e-05,0.0007330383,-1.7453292e-05,-0.0029,-0.0011999999,-0.009099999,-6.1912,-1.2341,7.5044,sit
0.00015707963,0.00015707963,0.00017453292,-0.0064999997,-0.0015,0.027099999,-6.1861,-1.2339,7.5085998,sit
8.726646e-05,-8.726646e-05,-0.00055850536,-0.0018,-0.0016,0.022799999,-6.1882997,-1.2306,7.5073,sit
0.000715585,-0.00066322513,-0.0012391837,-0.019199999,0.0047999998,0.0143,-6.1868997,-1.2329,7.5081,sit
0.0012391837,3.4906585e-05,-0.0018151425,-0.0009999999,-0.0026,0.0037,-6.1881,-1.2392,7.506,sit
0.00036651915,-0.0012391837,-0.0015707964,0.0001,-0.0061999997,-0.0039,-6.1854,-1.2437999,7.5076,sit
-0.0005410521,-0.0017104227,-0.0006806784,-0.0025,-0.011399999,0.0139999995,-6.1851,-1.2493,7.5069,sit
-0.0012217305,-0.0018151425,-0.0004363323,-0.0126,-0.0157,0.014699999,-6.1914,-1.2366999,7.5037,sit
-0.001012291,-0.0035081117,-6.981317e-05,-0.0063,0.0109,-0.0016,-6.1914,-1.2366999,7.5037,sit
-6.981317e-05,-0.004049164,0.00017453292,-0.016099999,0.010799999,-0.0016,-6.1914,-1.2366999,7.5037,sit
-0.00052359875,-0.0034906585,-0.0010646508,-0.025899999,0.0109,0.0081,-6.1913,-1.2366999,7.5038,sit
-0.00012217305,-0.0012217305,-0.00041887903,-0.025999999,0.0011,-0.0115,-6.1913,-1.2368,7.5038,sit
-0.00017453292,-0.0018151425,-0.0007330383,-0.025999999,-0.0084999995,-0.0016999999,-6.1910996,-1.2369,7.5038996,sit
-0.00057595863,-0.001256637,-0.0020594886,-0.036,0.0013,0.0079,-6.1909,-1.237,7.5041,sit
-0.00059341197,0.00034906584,-0.001134464,-0.0067999996,0.0112,-0.0019999999,-6.1907,-1.2372999,7.5042,sit
-0.0007330383,-0.00015707963,-0.00083775807,-0.0266,0.0016,-0.011899999,-6.1902,-1.2373999,7.5046,sit
-0.00012217305,0.00031415926,3.4906585e-05,-0.0075,-0.0079,0.016999999,-6.1621,-1.2461,7.5263,sit
-0.0015882496,0.00075049157,0.00020943952,-0.0356,0.0007,-0.0144,-6.1809998,-1.2343999,7.5126996,sit
-0.00038397242,0.00019198621,-0.00026179937,-0.0265,0.008599999,-0.0008,-6.184,-1.2292,7.5111,sit
-0.0010646508,-0.0006283185,-0.00055850536,-0.0039,0.0033999998,0.0007,-6.1816998,-1.2326,7.5123997,sit
-0.00061086525,-0.00029670598,-0.00082030473,0.0034999999,-0.003,-0.00049999997,-6.1829996,-1.2329999,7.5112996,sit
-0.0004363323,-0.001256637,-0.00027925268,-0.014699999,-0.0025,0.0103,-6.1914,-1.2297,7.5049,sit
-0.0009948377,0.00017453292,-0.00057595863,-0.016099999,0.0039,-0.0028,-6.1937,-1.2325,7.5024996,sit
-6.981317e-05,-0.00010471976,0.0012915436,-0.0039999997,-0.003,-0.0004,-6.2005997,-1.237,7.4961,sit
-0.00082030473,-0.0009250245,0.0030543262,-0.0167,-0.0083,-0.0037999998,-6.1987,-1.2332,7.4982996,sit
-0.001972222,0.0004886922,0.003036873,-0.0088,0.0074,0.0233,-6.1986,-1.2329,7.4983997,sit
-0.00041887903,0.00095993106,0.0021467549,-0.0187,-0.0026,0.0232,-6.2021,-1.2334,7.4954,sit
0.00027925268,0.0013264503,0.0009773844,-0.015199999,-0.0022,0.0066,-6.2019997,-1.2336,7.4954996,sit
-0.00045378561,0.00040142573,-0.0002443461,-0.015299999,-0.0019999999,0.0163,-6.2018,-1.2336999,7.4955997,sit
-0.0026529005,0.00020943952,-0.0005410521,0.0039999997,-0.0018999999,0.0162,-6.2018,-1.2339,7.4955997,sit
-0.0018849556,0.0032114058,-0.00061086525,0.0039999997,-0.011399999,0.0162,-6.2018,-1.2337999,7.4955997,sit
-0.002443461,0.0016406095,-0.001256637,0.0138,-0.0116,0.025999999,-6.2016997,-1.2335,7.4958,sit
-0.0013089969,-0.00015707963,0.0,0.0039,-0.0019999999,0.0455,-6.2018,-1.2334,7.4957,sit
-0.0018151425,-0.00017453292,0.0022514747,-0.0056999996,-0.0021,0.016099999,-6.2019997,-1.2332,7.4954996,sit
-0.0023387412,-0.0019896755,0.0025307273,-0.015299999,-0.0023,0.0359,-6.2022,-1.2329999,7.4954,sit
-0.0024260078,-0.0009773844,0.0011170107,-0.0053,0.0072,0.0066,-6.2023,-1.2330999,7.4953,sit
-0.00013962634,-0.0010646508,0.0018151425,-0.015,0.0072999997,0.0067,-6.2023,-1.2335,7.4953,sit
-0.00017453292,-0.0006981317,0.00031415926,-0.0052,-0.0019999999,0.0361,-6.2026997,-1.2339,7.4947996,sit
-0.00090757123,0.0004886922,0.0012217305,-0.0047999998,0.007999999,0.016999999,-6.2029,-1.2343999,7.4946,sit
-0.0011170107,0.00061086525,0.0015882496,-0.0046,-0.0109,0.017199999,-6.2028,-1.2347,7.4946,sit
-0.0012391837,0.0019198621,0.002391101,0.005,-0.0106999995,0.017199999,-6.2028,-1.2346,7.4947,sit
-0.00019198621,0.001134464,0.0021816615,0.005,0.0088,0.017099999,-6.2023997,-1.2344999,7.495,sit
-0.00061086525,0.0010646508,0.001850049,0.0144,0.0087,0.0266,-6.2022,-1.2347,7.4951,sit
-0.0010297443,0.002268928,0.0004363323,-0.0053,0.0089,0.0265,-6.2019997,-1.2343999,7.4953,sit
-0.0013089969,0.0007330383,0.00017453292,0.0042,0.008599999,0.0164,-6.2019,-1.2343,7.4954,sit
-0.00017453292,0.0004712389,0.00033161257,-0.0154,0.0084999995,0.0164,-6.2018,-1.2341,7.4955997,sit
-0.00082030473,-0.0004712389,0.0012217305,0.0138,0.018099999,0.026099999,-6.2018,-1.2341,7.4955997,sit
-0.0026529005,-0.00080285146,0.0022863813,0.0138,-0.0112,0.0358,-6.2021,-1.2341,7.4953,sit
-0.0019198621,0.0,0.0014486233,-0.0053999997,-0.0112,0.0067,-6.2023,-1.2337999,7.4951997,sit
-0.0012042772,-0.00031415926,0.0015882496,-0.015,0.007999999,0.036199998,-6.2025,-1.2336999,7.495,sit
-0.0006981317,-0.0012740904,0.0014137167,-0.0246,-0.0018999999,0.0168,-6.203,-1.2336,7.4947,sit
-0.0026703537,-0.0015707964,0.0012740904,-0.0143,0.0176,0.0072999997,-6.2030997,-1.2336999,7.4944997,sit
-0.0012915436,5.235988e-05,0.00034906584,-0.0142,-0.0018,0.0075,-6.2033,-1.2335,7.4944,sit
-0.0004363323,0.00026179937,-0.0004886922,-0.0042,0.0077,-0.0021,-6.2033,-1.2335,7.4944997,sit
-0.00010471976,-0.00040142573,0.00045378561,-0.014099999,-0.0019999999,0.027099999,-6.2032,-1.2336,7.4944997,sit
-0.0010297443,-0.00057595863,0.00017453292,-0.014099999,-0.0018999999,0.0075,-6.2032,-1.2336,7.4944997,sit
-0.0010821042,-0.0004712389,0.0017802358,-0.0042999997,0.0078,0.0173,-6.2032,-1.2335,7.4944997,sit
-0.0028099802,-6.981317e-05,0.0018675023,-0.0042999997,0.0077,0.017199999,-6.203,-1.2334,7.4947,sit
-0.0006806784,0.0002443461,0.0011170107,-0.0045,-0.0021,0.0072999997,-6.2026997,-1.2336,7.4948997,sit
-0.0014486233,-0.0011170107,0.0009773844,-0.0047999998,0.0077,0.0169,-6.2023,-1.2335,7.4953,sit
-0.0015358897,-0.00012217305,0.0021467549,0.0241,0.0077,0.0165,-6.2022,-1.2336999,7.4953,sit
-0.00033161257,0.000715585,0.00075049157,-0.0053,-0.0018999999,0.0263,-6.2021,-1.2335,7.4954,sit
-0.0009250245,0.00085521134,0.0011693706,-0.0053999997,0.0077,0.0164,-6.2019997,-1.2335,7.4954996,sit
-0.0013788101,0.000715585,0.0005061455,-0.0055,0.0075999997,0.0064999997,-6.2018,-1.2334,7.4957,sit
-0.0014486233,0.0021816615,-0.00033161257,0.0039999997,-0.0021,0.025899999,-6.2019997,-1.2333,7.4954996,sit
-0.0022165682,0.001850049,0.0026179939,-0.0055,0.0075,-0.0032,-6.2021,-1.2333,7.4954996,sit
-0.0027227136,0.0004886922,0.002984513,-0.0055,-0.0022,0.0163,-6.2019,-1.2335,7.4955997,sit
-0.0010821042,0.0018849556,0.0010821042,-0.0056,-0.0117999995,0.0162,-6.2019,-1.2334,7.4955997,sit
-6.981317e-05,0.0006457718,0.0009948377,-0.0154,0.0075,0.0162,-6.2019997,-1.2332,7.4955997,sit
-0.00076794485,-0.0004712389,-0.00013962634,-0.0055,0.0074,0.0162,-6.2019,-1.2330999,7.4955997,sit
-0.0009773844,-0.0024783674,-0.001012291,0.0041,0.0072,0.025999999,-6.2023,-1.2329,7.4954,sit
-0.0033161256,0.00017453292,-0.00061086525,-0.0052,0.0071,-0.0030999999,-6.2025,-1.2330999,7.4951997,sit
-0.0028448866,0.0005410521,-0.0012915436,0.0145,0.0072999997,-0.0029,-6.2026997,-1.2330999,7.4948997,sit
-0.0010821042,-0.0007853982,-0.00083775807,-0.0047999998,-0.0023999999,0.0168,-6.2028,-1.2332,7.4948997,sit
-0.0012042772,-0.00082030473,0.00019198621,-0.0047,0.0074,0.0267,-6.2030997,-1.2332,7.4946,sit
-0.003822271,-0.0028972465,0.0015882496,-0.0142,0.0074,0.0074,-6.2033,-1.2330999,7.4944997,sit
-0.0028797933,-0.0026179939,0.0016580628,-0.023799999,0.0072,0.0075,-6.2032,-1.2332,7.4944997,sit
-0.00026179937,-0.00040142573,0.0017802358,-0.0337,0.0072999997,0.0075,-6.2028,-1.2334,7.4947996,sit
-0.0004712389,-8.726646e-05,0.0013439035,-0.0341,0.0174,0.036599997,-6.2028,-1.234,7.4947,sit
-0.001012291,0.0011868239,0.001553343,0.005,0.0081,0.0072,-6.2029,-1.2344999,7.4946,sit
-0.0009424778,0.002042035,0.0009424778,-0.0046,0.0087,0.017199999,-6.2026997,-1.2348,7.4947,sit
-0.00083775807,0.0016755161,0.0005061455,-0.014599999,0.009,0.0072999997,-6.2026,-1.2349,7.4947996,sit
-0.00055850536,0.0010471975,0.0017453292,0.014599999,-0.00059999997,0.016999999,-6.2021,-1.2353,7.4951,sit
-0.00080285146,0.00045378561,0.002687807,0.0042999997,0.0095,0.0167,-6.2016997,-1.2356,7.4954,sit
-0.000715585,0.0013439035,0.0012391837,0.0137,0.0,0.0164,-6.2016997,-1.2354,7.4954996,sit
-0.00013962634,0.0007853982,0.00066322513,0.0039,0.0095999995,0.026099999,-6.2016997,-1.2351999,7.4954996,sit
-0.00017453292,-0.00026179937,0.00010471976,0.0039,0.0094,0.0064999997,-6.2019,-1.2351999,7.4953,sit
-0.0009948377,0.00080285146,-0.00040142573,-0.0056999996,0.0093,0.0164,-6.2021,-1.2351999,7.4951,sit
-0.0015009831,-0.0012042772,0.00040142573,0.014099999,0.0093,0.0167,-6.2023,-1.2351999,7.4948997,sit
-0.0015184365,-0.0014486233,0.00059341197,0.0045,-0.00029999999,0.0169,-6.2025,-1.2350999,7.4947996,sit
-0.0026005406,-0.0024260078,0.001134464,-0.005,0.0092,0.016999999,-6.2026997,-1.2348,7.4947,sit
-0.0006283185,-0.0017627826,0.00052359875,-0.014699999,0.009,0.026899999,-6.2029,-1.2348,7.4946,sit
-0.0011693706,-0.0014660766,0.00015707963,-0.0144,0.0089,0.017199999,-6.2030997,-1.2347,7.4944,sit
-0.00080285146,-0.0016755161,0.001553343,-0.0241,0.0088,-0.0021,-6.203,-1.2347,7.4944997,sit
-0.0006283185,-0.00083775807,0.00095993106,-0.0143,0.0088,0.0173,-6.2035,-1.2348,7.4940996,sit
-0.0006283185,-0.00045378561,-0.00059341197,-0.023599999,-0.0007,-0.0018,-6.2033997,-1.235,7.4940996,sit
-0.00041887903,-0.00041887903,-0.0006806784,-0.0139,-0.00059999997,0.0079,-6.2033,-1.2349,7.4941998,sit
-0.0007853982,-0.00033161257,0.00010471976,-0.0139999995,0.009099999,0.0078,-6.2032,-1.2347,7.4943,sit
-0.0017453292,-0.00057595863,-0.00038397242,-0.0042999997,0.0089,-0.0019999999,-6.2026997,-1.2343999,7.4947996,sit
-0.0010821042,-0.00059341197,0.00057595863,0.0049,0.008599999,0.016999999,-6.2023997,-1.2343999,7.4951,sit
-0.0021293017,0.00031415926,0.00061086525,-0.0050999997,0.008599999,0.0167,-6.2019,-1.2339,7.4954996,sit
-0.0011693706,0.00020943952,0.00076794485,0.0041,0.0081,0.0064999997,-6.2015,-1.2336999,7.4958,sit
-0.0009250245,-0.00020943952,-0.00031415926,0.0037,0.0079,0.025799999,-6.2012,-1.2336,7.4961,sit
-0.0016231562,-0.0011693706,5.235988e-05,0.0033999998,0.0078,0.0157,-6.2009997,-1.2336,7.4962997,sit
-0.0009250245,-0.0006806784,0.0,-0.0064999997,0.0078,0.0253,-6.2008,-1.2336999,7.4964,sit
-0.0009948377,-0.0010995574,0.00045378561,-0.0067,-0.0018,0.0252,-6.2009997,-1.2337999,7.4962997,sit
-0.0010821042,-0.0011170107,-1.7453292e-05,-0.026099999,0.007999999,0.0056999996,-6.2009,-1.2339,7.4962997,sit
-0.0002443461,-0.00059341197,-0.00082030473,-0.0066,-0.0016,0.0056999996,-6.2012,-1.2342,7.496,sit
-0.0011693706,-0.00015707963,-0.00026179937,-0.0063,-0.0013,-0.0037,-6.2015,-1.2343,7.4958,sit
-0.00082030473,-0.00055850536,0.0012915436,-0.0354,-0.0011999999,0.0061999997,-6.2022,-1.2342,7.4951997,sit
-0.00083775807,-0.0006981317,0.00083775807,-0.024899999,0.0083,-0.0127,-6.2019,-1.2342,7.4954,sit
-0.0019373155,-0.0006283185,0.00085521134,-0.0056,0.0084,0.0164,-6.2016997,-1.2342,7.4955997,sit
-0.0012042772,0.0002443461,0.0015707964,-0.0058,0.0084,0.025999999,-6.2016,-1.2341,7.4957,sit
-0.00059341197,0.00061086525,0.00038397242,-0.0157,0.0083,0.016099999,-6.2012997,-1.2341,7.496,sit
-0.0021642083,-5.235988e-05,-0.00045378561,-0.0061999997,0.0083,0.0256,-6.2012997,-1.2342,7.496,sit
-0.0035255651,0.0004886922,-0.0011868239,-0.0356,-0.0013,0.0256,-6.2014,-1.2342,7.4958997,sit
-0.0035604716,0.0015358897,-0.0016755161,-0.015899999,0.0084,0.0061,-6.2011,-1.2342,7.4961,sit
3.4906585e-05,0.00027925268,-0.00095993106,0.0033,-0.0014,0.035299998,-6.2009997,-1.2342,7.4961996,sit
-0.0021293017,-0.00031415926,-0.00017453292,-0.0163,-0.0014,0.0156,-6.2009,-1.2342,7.4962997,sit
-0.0020769418,-0.0016231562,0.00020943952,-0.0066,0.0083,0.0253,-6.2011,-1.234,7.4961996,sit
-0.0011519173,-0.00055850536,0.0013089969,-0.0162,0.0081,0.0058,-6.2012,-1.2337999,7.4961,sit
-0.0016755161,-0.00095993106,0.002321288,-0.016099999,0.007999999,0.0255,-6.2012,-1.234,7.4961,sit
-0.0012042772,0.00012217305,0.0020769418,-0.016099999,0.0082,0.0157,-6.2012997,-1.2344999,7.496,sit
0.00013962634,0.00036651915,5.235988e-05,0.0033999998,0.008599999,-0.0037,-6.2014,-1.2353,7.4957,sit
-0.0009948377,0.00041887903,0.0019547688,-0.0257,-0.00029999999,0.0063,-6.2014,-1.2355,7.4957,sit
-0.0011519173,0.0011693706,0.00057595863,0.0036,-0.0197,0.0063,-6.2012997,-1.2358,7.4957,sit
0.00026179937,0.0015009831,0.00022689281,-0.0061999997,0.0002,0.016099999,-6.2011,-1.236,7.4958,sit
0.00095993106,0.0013788101,0.0023387412,-0.0064,0.010199999,0.015999999,-6.2009997,-1.236,7.4958997,sit
-0.00055850536,0.002024582,0.0011693706,0.0032,0.0004,0.015899999,-6.2009,-1.236,7.496,sit
-0.0006457718,0.00026179937,-0.00017453292,-0.0164,0.010199999,0.0158,-6.2009997,-1.2358999,7.496,sit
-0.0002443461,0.00026179937,-0.0010471975,-0.0064999997,0.00029999999,0.0158,-6.2009997,-1.2358,7.4958997,sit
0.00034906584,-0.00031415926,-0.0010995574,0.0032,0.01,0.015899999,-6.2011,-1.2357,7.4958997,sit
-0.00061086525,-0.0015358897,-0.00045378561,0.0033,0.0098,0.0061,-6.2012,-1.2358,7.4958,sit
-0.002094395,-0.0027750735,0.0007853982,-0.0063,0.0001,0.025799999,-6.2016,-1.2356,7.4954,sit
-0.001256637,-0.0033510323,0.00033161257,-0.0255,0.0098,-0.022799999,-6.2019997,-1.235,7.4951997,sit
-0.00010471976,-0.0025830872,0.0006283185,-0.0251,0.0092,0.0166,-6.2025,-1.2347,7.4948997,sit
-0.0017278759,-0.0023038345,0.0015184365,-0.0246,0.0089,0.0169,-6.203,-1.2346,7.4944997,sit
-0.0009948377,-0.001553343,-5.235988e-05,-0.0242,0.0088,-0.0023,-6.2032,-1.2347,7.4943,sit
-0.0007330383,-0.0011519173,0.0005410521,-0.0436,-0.0008,0.0175,-6.2033,-1.2348,7.4941998,sit
-0.0014660766,0.0002443461,-0.00027925268,-0.023799999,-0.0008,0.0078,-6.2030997,-1.2349,7.4944,sit
-0.00022689281,0.00095993106,-0.0004712389,-0.0143,-0.0007,0.0174,-6.2023,-1.2348,7.495,sit
-0.00061086525,0.0015184365,0.0005410521,0.0045,0.0089,0.0168,-6.2018,-1.2347,7.4954996,sit
-0.0016929694,0.0009424778,0.00033161257,-0.0156,0.0089,0.0359,-6.2007,-1.2343,7.4964,sit
-0.0027227136,0.0010646508,0.0014486233,0.0127,0.0084999995,0.0154,-6.2002,-1.2343999,7.4968996,sit
-0.0012391837,0.00045378561,-0.0008726646,0.0023999999,-0.0011999999,0.0149,-6.1994996,-1.2342,7.4975,sit
-0.0008901179,1.7453292e-05,-0.00015707963,0.0115,0.0084,0.0241,-6.1991,-1.2341,7.4978,sit
-0.0013962634,-0.00027925268,3.4906585e-05,-0.0084,0.0083,0.043399997,-6.1991,-1.2341,7.4978,sit
-0.00095993106,-0.00031415926,0.0006283185,-0.0084,0.0083,0.0139999995,-6.1987,-1.2343,7.4981,sit
-0.0010646508,-0.0015707964,0.0020594886,0.010799999,-0.0013,0.0137,-6.199,-1.2339,7.4979,sit
-0.0013962634,-0.00082030473,0.0011868239,-0.0084999995,0.0178,0.0139,-6.199,-1.2339,7.4979,sit
-0.0013439035,-0.0011519173,0.0002443461,-0.0084999995,0.0081,0.023699999,-6.1994,-1.2341,7.4975,sit
-0.00040142573,-0.001012291,-0.0002443461,-0.0179,-0.0014,0.0045,-6.1997,-1.2342,7.4972997,sit
3.4906585e-05,-0.00041887903,-0.0006806784,-0.0176,0.0083,0.0047,-6.1998997,-1.2343,7.4971,sit
-0.00057595863,-0.001134464,-0.00059341197,-0.0175,-0.0011999999,0.0047999998,-6.2,-1.2343,7.4969997,sit
-0.00019198621,-0.001256637,-0.00095993106,-0.0173,0.0084999995,0.005,-6.2,-1.2342,7.4969997,sit
-0.0007853982,0.00010471976,-0.000715585,-0.0173,0.0083,0.0148,-6.1997,-1.2339,7.4972997,sit
-0.002443461,-0.001012291,0.0012915436,-0.0078,0.0081,0.0243,-6.1994996,-1.2336999,7.4975996,sit
-0.0017802358,-0.00015707963,0.00059341197,0.0016,0.0079,0.0142,-6.1994996,-1.2336999,7.4975996,sit
-0.0012740904,0.0,0.0015009831,-0.0178,0.0078,0.0044,-6.1994,-1.2335,7.4975996,sit
-0.0006283185,0.00057595863,0.00036651915,-0.0081,0.0077,0.0044,-6.1991997,-1.2333,7.4979,sit
-0.0012217305,-0.00019198621,-0.00059341197,0.0014,0.0075,0.0139,-6.199,-1.2335,7.4979997,sit
-0.0009424778,-0.00027925268,-0.0020594886,-0.018299999,-0.0021,0.023599999,-6.1987,-1.2337999,7.4982,sit
-0.003036873,0.0004886922,-0.0023387412,-0.0088,-0.0116,0.013599999,-6.1986,-1.2336,7.4982996,sit
-0.0012217305,-0.00076794485,-0.0026703537,0.0008,0.0078,0.0037,-6.1984997,-1.2336999,7.4983997,sit
-0.0012391837,-0.0006283185,-0.0014660766,-0.0188,0.0079,0.033,-6.1984997,-1.2336999,7.4983997,sit
-0.0010821042,-0.0014835298,0.0004712389,-0.009099999,0.0079,0.0134,-6.1984997,-1.2336999,7.4983997,sit
-0.0008901179,-0.003036873,0.0014835298,-0.009,-0.0018,0.0134,-6.1987996,-1.2335,7.4982,sit
-0.0010471975,-0.0038048178,0.0025307273,-0.0185,0.0077,0.0037999998,-6.1987996,-1.2336999,7.4981,sit
-0.0017802358,-0.0005061455,0.0022514747,-0.0381,0.0078,0.0235,-6.199,-1.2337999,7.4979997,sit
-0.0024260078,-0.0018325957,0.0029496064,-0.038,0.0178,0.0138,-6.1991997,-1.2344999,7.4976997,sit
0.00029670598,0.0004363323,-6.981317e-05,-0.018199999,-0.0009999999,0.0042999997,-6.1995997,-1.2353,7.4972,sit
-0.0004363323,0.00034906584,0.00061086525,-0.0275,-0.01,-0.014699999,-6.1997,-1.2354,7.4971,sit
0.00082030473,-0.00029670598,0.00012217305,-0.0176,0.0095999995,0.0049,-6.1994,-1.2355,7.4972997,sit
0.0018675023,0.0011868239,0.00022689281,-0.0081,0.0,0.0145,-6.1984997,-1.2350999,7.4981,sit
0.0015009831,-0.001012291,0.0010995574,0.0105,0.0092,0.0137,-6.1980996,-1.2348,7.4985,sit
0.0016929694,-0.00095993106,0.0,-0.0095,-0.0007,0.032899998,-6.198,-1.2348,7.4986,sit
0.0010995574,-0.00045378561,-0.0007853982,0.0002,0.009,0.0328,-6.1977997,-1.2347,7.4986997,sit
0.0015009831,-0.0005061455,-0.0016406095,0.0,0.0089,0.012999999,-6.1979,-1.2347,7.4986997,sit
0.0007330383,-0.0004886922,-0.001256637,-0.0095999995,-0.0008,0.0033,-6.198,-1.2347,7.4986,sit
-0.0013613568,-0.0023038345,0.0,-0.0095,0.0088,0.023,-6.1979,-1.2344999,7.4986997,sit
-0.00082030473,-0.0027227136,0.0006283185,0.0099,0.0087,0.0033,-6.1981997,-1.2341,7.4986,sit
0.0,-0.0032114058,1.7453292e-05,-0.019199999,0.0083,-0.0063,-6.1980996,-1.2336999,7.4986997,sit
0.00055850536,-0.0028972465,0.0005061455,-0.019299999,0.0275,0.0131,-6.1979,-1.2334,7.4989,sit
0.00052359875,-0.0013613568,8.726646e-05,-0.0095999995,0.0174,0.0128999995,-6.1979,-1.2333,7.4989,sit
0.0012740904,-0.0004363323,-0.0008901179,-0.029199999,0.0075,0.003,-6.1977997,-1.2333,7.4989996,sit
0.0011868239,-0.00034906584,-0.00045378561,-0.0098,-0.0023,0.0127,-6.1977,-1.2333,7.4990997,sit
0.0013439035,-0.00045378561,-0.0013264503,-0.0098,-0.0022,0.0029,-6.1973,-1.2335,7.4993997,sit
0.00015707963,-0.00010471976,-0.001134464,-0.02,-0.0019999999,0.0222,-6.1966996,-1.2336,7.4999,sit
0.0013264503,-0.0012217305,0.00017453292,-0.0009999999,-0.0019999999,0.0315,-6.1959996,-1.2333,7.5004997,sit
-0.00026179937,-0.0013264503,0.00034906584,-0.0016999999,0.0075,0.0211,-6.1955,-1.2329,7.501,sit
0.00075049157,-0.00085521134,-0.000715585,-0.0022,0.0071,0.010799999,-6.1952,-1.2327,7.5011997,sit
0.0013962634,-0.00013962634,-0.001134464,-0.0123,0.0067999996,0.020399999,-6.1949997,-1.2324,7.5014,sit
0.0011693706,-0.0010646508,-0.00090757123,-0.012499999,0.0066,0.03,-6.1952996,-1.2321,7.5013,sit
0.0006806784,-0.0016231562,-0.0004363323,-0.022,0.0063,0.0007,-6.1953998,-1.2319,7.5011997,sit
0.0009948377,-0.00085521134,-0.0006283185,-0.0219,0.0061,0.0106,-6.1956,-1.2318,7.5010996,sit
-0.00041887903,-0.00029670598,-0.00080285146,-0.011899999,0.0058999998,0.0009,-6.1955,-1.2313,7.5013,sit
0.00019198621,-0.00075049157,-0.0009948377,-0.012,0.0055,0.0105,-6.1949,-1.2312,7.5017996,sit
0.0009424778,-0.0031415927,-0.00080285146,0.0069,0.0053,0.0297,-6.1947,-1.2306,7.502,sit
0.0004886922,-0.0019373155,-0.00013962634,-0.003,0.014599999,0.0098,-6.1945,-1.2306,7.5021996,sit
0.00055850536,-0.00017453292,-0.0009948377,-0.0032,-0.0049,0.019399999,-6.1942997,-1.2304,7.5024,sit
0.0005061455,0.0004712389,-0.0005061455,-0.0132,0.0046,0.019199999,-6.1938996,-1.2301999,7.5027,sit
-0.0006806784,0.0010646508,-0.0010297443,-0.013599999,0.0044,0.0287,-6.194,-1.23,7.5025997,sit
0.0011868239,0.0009773844,-0.0006806784,-0.033099998,0.0042,0.009099999,-6.1938,-1.2300999,7.5028,sit
-8.726646e-05,0.00045378561,0.00075049157,-0.0039,0.0042,0.0188,-6.1937,-1.23,7.503,sit
-0.00075049157,0.0017453292,0.0016929694,-0.0039999997,0.0042,0.0088,-6.1931,-1.2298,7.5035,sit
-0.0005410521,0.0005061455,-0.00083775807,0.0050999997,0.0039999997,-0.0014,-6.1928,-1.2294999,7.5038,sit
0.00038397242,0.0017627826,-0.0012217305,-0.014699999,0.013499999,0.0178,-6.1923,-1.2294999,7.5042,sit
-3.4906585e-05,0.0010646508,-0.0005061455,0.023899999,0.0036,0.0075999997,-6.1921997,-1.2293,7.5042,sit
-0.00075049157,-0.00031415926,-0.0011170107,-0.015299999,0.0034999999,0.037,-6.1926,-1.2296,7.5038996,sit
-0.00090757123,0.00027925268,-0.0010821042,-0.024799999,-0.0058999998,0.0078,-6.1927,-1.2296,7.5038,sit
0.00034906584,-0.0016929694,-0.000715585,-0.0148,-0.006,0.0178,-6.1928,-1.2293999,7.5038,sit
0.00055850536,-0.0013264503,-0.0006283185,-0.0245,0.0036,0.0276,-6.1931,-1.2292,7.5035996,sit
0.00040142573,-0.0031241393,0.00010471976,-0.0242,0.0033999998,0.0278,-6.1931996,-1.2293,7.5035,sit
0.0004886922,-0.0025481808,0.0016406095,-0.0242,0.0034999999,0.0279,-6.1944,-1.2293,7.5024,sit
-0.0015882496,-0.00076794485,0.00143117,-0.0229,0.0033999998,-0.02,-6.1947,-1.2292,7.5021996,sit
-0.0012915436,0.00020943952,0.0007330383,-0.022599999,0.0033999998,0.0095999995,-6.1947,-1.2293999,7.5021996,sit
0.00041887903,0.00095993106,0.0004712389,-0.0128,0.0036,0.0095999995,-6.1948,-1.2294999,7.5021,sit
-0.0004363323,0.0016929694,0.0005410521,-0.0127,0.0037,0.009699999,-6.1948,-1.2293999,7.5021,sit
0.0004712389,0.00076794485,0.0024085543,-0.0127,0.0036,-0.0001,-6.1945996,-1.2293,7.5023,sit
-0.00026179937,0.00061086525,0.0012740904,-0.0128999995,0.0034999999,0.0095,-6.1941,-1.2287999,7.5028,sit
0.00041887903,0.0012740904,0.0017627826,-0.0036,0.0128,0.009,-6.1937,-1.2285,7.5031996,sit
0.00010471976,0.0006981317,0.0011170107,-0.0138,0.0026,0.038,-6.1935997,-1.2284,7.5032997,sit
0.00090757123,0.0007330383,-0.00066322513,-0.023699999,0.0026,0.028099999,-6.1934,-1.2284,7.5034,sit
-0.00015707963,-0.00012217305,-0.0010821042,0.0053999997,0.0026,0.0083,-6.1934,-1.2282,7.5035,sit
0.00022689281,0.0,-0.0002443461,-0.0042999997,0.0023999999,0.0279,-6.1931,-1.2281,7.5038,sit
-0.0015184365,-0.0012391837,0.0013962634,0.0149,0.0023,0.0178,-6.1931996,-1.2277,7.5037,sit
-0.0016057029,-0.00055850536,0.0010297443,-0.0143,0.0018999999,0.0179,-6.1933,-1.2275,7.5037,sit
-0.001134464,-0.0025481808,0.0009773844,-0.0142,0.0016999999,0.0277,-6.1935,-1.2271999,7.5035,sit
8.726646e-05,-0.0021467549,0.00020943952,-0.0139999995,0.0013,0.018099999,-6.1938,-1.2269,7.5034,sit
-0.00017453292,-0.002268928,0.00012217305,-0.033299997,0.0011,0.018199999,-6.1941,-1.2268,7.5031,sit
-0.0004363323,-0.0010471975,0.00019198621,-0.0134,0.0009999999,-0.0009999999,-6.1942,-1.2269,7.503,sit
0.00040142573,-0.00082030473,0.00038397242,-0.0231,0.0011,0.0088,-6.1944,-1.2269,7.5028996,sit
-0.0017104227,-0.0010995574,0.00013962634,-0.0229,0.0009999999,0.0089,-6.1942997,-1.2269,7.503,sit
0.0005410521,0.00013962634,0.00020943952,-0.023,0.0009999999,0.0186,-6.1942,-1.2269,7.5031,sit
0.00052359875,0.00040142573,0.00036651915,-0.0133,0.0011,0.0284,-6.1935997,-1.2269,7.5035,sit
0.00143117,0.00045378561,0.0023736479,-0.0041,0.0011,0.0279,-6.1931,-1.2268,7.5039997,sit
-0.00020943952,0.0008901179,0.0010821042,0.0050999997,0.0009999999,0.0078,-6.1924996,-1.2268,7.5045,sit
0.00019198621,0.0008726646,-0.00022689281,0.0045,0.0009,0.017099999,-6.1921,-1.2268,7.5048,sit
0.00040142573,0.0004363323,0.00066322513,0.0041,0.0009,0.0168,-6.1917,-1.2265999,7.5051,sit
-0.00083775807,0.0017104227,0.00013962634,0.0037,0.0008,0.0165,-6.1914997,-1.2268,7.5053,sit
-0.0006806784,0.0004363323,0.00057595863,-0.0061999997,0.0009,0.0163,-6.1916,-1.2265999,7.5052,sit
-0.0007853982,0.00045378561,0.0010471975,-0.015899999,0.0008,0.0066,-6.1916,-1.2263,7.5053,sit
-0.00020943952,-0.00020943952,-0.00076794485,-0.0061,0.010199999,0.0163,-6.1914997,-1.2257,7.5053997,sit
0.0005061455,0.00033161257,0.00057595863,0.0036,0.0,0.0064,-6.1916,-1.2256,7.5053997,sit
0.00017453292,-0.00045378561,-0.00013962634,-0.0061,-0.0001,0.025999999,-6.1917,-1.2256,7.5053,sit
-0.00029670598,0.00036651915,-0.001012291,-0.006,-0.0002,0.0064999997,-6.1917996,-1.2254,7.5052,sit
0.00034906584,0.00040142573,-0.001134464,-0.0157,-0.0004,0.0164,-6.1921997,-1.2254,7.5049,sit
0.00082030473,8.726646e-05,0.00082030473,-0.015299999,-0.00029999999,0.0069,-6.1924,-1.2254,7.5048,sit
-0.0014835298,-0.00038397242,0.0013089969,-0.0150999995,-0.00029999999,0.0069999998,-6.1926,-1.2254,7.5046,sit
-0.00022689281,0.0004363323,0.0022863813,-0.0149,-0.00029999999,0.0072,-6.1924,-1.2253,7.5046997,sit
0.0005410521,-0.00020943952,0.0,-0.0053,0.0093,0.0169,-6.1926,-1.2249,7.5046,sit
0.0027576203,0.00090757123,-0.0009773844,-0.0149,0.0089,0.0072,-6.1924996,-1.2249,7.5048,sit
0.00010471976,0.0,-0.00083775807,-0.0052,-0.0008,0.0168,-6.1926,-1.2251999,7.5046,sit
-0.0032986724,-0.00059341197,-0.0009948377,-0.0149,-0.0103,0.0072,-6.1927,-1.2256,7.5045,sit
-0.002024582,0.002042035,-0.001850049,0.0047,-0.01,-0.0122,-6.1927,-1.2254,7.5045,sit
-8.726646e-05,0.0006981317,-0.0011519173,-0.0246,-0.0101,0.026899999,-6.1926,-1.2251999,7.5046,sit
-0.0006981317,-0.00041887903,0.0009424778,-0.0050999997,0.0092,0.016999999,-6.1927,-1.2246,7.5046997,sit
-0.001256637,-0.0011519173,0.0006981317,-0.005,0.0184,0.0169,-6.193,-1.2245,7.5044,sit
-8.726646e-05,-0.000715585,0.000715585,-0.0341,-0.0013,-0.0023,-6.1935,-1.2242,7.5041,sit
-0.0004712389,-0.00061086525,0.00041887903,-0.0337,-0.0016,-0.0019999999,-6.1935,-1.224,7.5041,sit
0.0014660766,0.00038397242,0.00022689281,-0.023799999,0.0177,0.0175,-6.1935,-1.2246,7.5039997,sit
-0.00045378561,0.001012291,-0.00017453292,-0.0139999995,-0.0011,0.0078,-6.194,-1.2250999,7.5035,sit
-0.00033161257,0.0011170107,0.00085521134,-0.013499999,-0.00059999997,-0.0014,-6.1944,-1.2251999,7.5031,sit
-0.00034906584,0.0008726646,0.0016231562,-0.0327,-0.00049999997,-0.0009999999,-6.1945,-1.2251999,7.5031,sit
0.00080285146,0.0004712389,0.00085521134,-0.012999999,-0.00059999997,0.0087,-6.194,-1.2253,7.5035,sit
0.001012291,0.0011693706,0.00082030473,0.006,-0.00049999997,0.0279,-6.1938,-1.2249,7.5037,sit
0.00019198621,0.0009250245,0.0009424778,-0.0039,0.0089,0.0179,-6.1935997,-1.2249,7.5038996,sit
0.0004712389,0.0004363323,0.00010471976,-0.0041,-0.0008,0.0177,-6.1935,-1.2247,7.5039997,sit
0.0012915436,0.0006283185,-0.0013788101,-0.0042,-0.0011,0.0274,-6.1938996,-1.2245,7.5037,sit
0.0013788101,0.00045378561,-0.0014660766,-0.013599999,0.0084,-0.0016,-6.1938,-1.2243999,7.5038,sit
0.00080285146,0.00040142573,-8.726646e-05,0.0058,-0.0013,0.007999999,-6.1938996,-1.2243,7.5037,sit
-0.0010646508,-0.00052359875,0.0017802358,-0.0037999998,-0.0014,0.0081,-6.1941,-1.2241,7.5035996,sit
-0.000715585,-0.0016406095,0.0013089969,-0.0134,-0.0016999999,0.0082,-6.1944,-1.2238,7.5034,sit
-0.0013788101,-0.002565634,0.0013613568,-0.0131,-0.0018999999,0.0084,-6.1945996,-1.2236999,7.5031996,sit
-0.00020943952,-0.0026005406,0.001134464,-0.022699999,-0.0021,0.0184,-6.1949,-1.2235999,7.503,sit
0.00038397242,0.00015707963,-0.00033161257,-0.032199997,-0.0022,0.0088,-6.1951,-1.2235,7.5028,sit
0.0006283185,0.00036651915,0.00033161257,-0.0222,-0.0022,0.0089,-6.1952,-1.2235999,7.5027,sit
0.00029670598,-3.4906585e-05,-0.0009948377,-0.0221,-0.011899999,0.009099999,-6.1952996,-1.2236999,7.5025997,sit
5.235988e-05,0.0,-0.00013962634,-0.0122,-0.0117999995,0.0092,-6.1953998,-1.2236999,7.5025997,sit
5.235988e-05,0.00036651915,-0.00036651915,-0.0121,-0.0019999999,0.0092,-6.1949997,-1.2234,7.5028996,sit
0.0005061455,0.0005061455,0.0005061455,0.0069999998,0.0074,-0.0008,-6.1942997,-1.2231,7.5035996,sit
-0.0005410521,0.0004363323,0.0007330383,0.0063,0.0071,0.0082,-6.1938996,-1.2228999,7.5038996,sit
-1.7453292e-05,0.00057595863,0.00029670598,-0.013599999,0.0067999996,0.0275,-6.1935997,-1.2228999,7.5042,sit
-0.00013962634,0.0004886922,-0.00020943952,0.0056,-0.0028,0.0174,-6.1935997,-1.2228,7.5042,sit
0.0005410521,-0.00034906584,-0.00017453292,-0.0041,-0.003,0.0174,-6.1935,-1.2228,7.5042,sit
-0.00066322513,-0.0010821042,-0.0005061455,-0.0139999995,-0.0029,0.0174,-6.1938,-1.2228999,7.5039997,sit
-0.00038397242,-0.0010471975,0.00022689281,-0.0137,-0.0028,-0.0018999999,-6.1938996,-1.2229999,7.5038996,sit
-0.0009948377,-0.00052359875,0.00080285146,-0.013599999,-0.0028,0.0079,-6.1942,-1.2227,7.5037,sit
-0.00082030473,0.00040142573,0.00143117,-0.0231,0.0066,0.0081,-6.1942997,-1.2225,7.5037,sit
0.00031415926,-0.00010471976,-0.0002443461,-0.0132,0.0064999997,0.0179,-6.1945996,-1.2225,7.5034,sit
0.00010471976,-0.00029670598,0.0002443461,-0.0325,-0.0033,0.0084,-6.1948,-1.2225,7.5031996,sit
-0.00022689281,0.0004363323,-0.00038397242,-0.022499999,-0.0032,0.0084999995,-6.1948,-1.2226,7.5031996,sit
0.00038397242,0.0010297443,-0.0004886922,-0.0323,-0.012999999,0.0184,-6.1947,-1.2227,7.5032997,sit
0.0011868239,-0.00075049157,-0.00080285146,-0.0128999995,-0.003,0.018299999,-6.1944,-1.2228,7.5035,sit
0.00055850536,0.0,-0.00085521134,-0.0033,-0.0029,0.0083,-6.1941,-1.2227,7.5038,sit
-0.00033161257,1.7453292e-05,-0.0007853982,0.0061,0.0066,0.0178,-6.194,-1.2224,7.5038996,sit
0.00033161257,0.00010471976,-0.00066322513,-0.0037,0.0064,0.0177,-6.1942997,-1.2225,7.5037,sit
-0.0013439035,0.00010471976,0.00033161257,-0.0132,-0.0033,-0.0016,-6.1942997,-1.2222999,7.5037,sit
0.00038397242,-0.00090757123,-0.0014660766,-0.0132,0.0061999997,0.0081,-6.1949,-1.2228999,7.5031,sit
0.00052359875,0.00017453292,-0.0004712389,-0.0126,-0.0126,-0.010799999,-6.1951,-1.2228999,7.503,sit
-0.00057595863,0.0005061455,0.0009773844,-0.012499999,-0.0028,0.0186,-6.1948,-1.2228999,7.5031996,sit
-0.00038397242,0.0010297443,0.00083775807,-0.0029,-0.0029,0.0184,-6.1948,-1.2228999,7.5031996,sit
-0.000715585,0.00045378561,0.0014486233,-0.0127,-0.0028,0.008599999,-6.1949,-1.2231,7.5031,sit
0.0008901179,0.0008726646,0.0,-0.0126,-0.0026999998,0.0087,-6.1947,-1.2228999,7.5031996,sit
0.0009773844,0.0012042772,8.726646e-05,-0.003,0.0069,0.0184,-6.1947,-1.2231,7.5031996,sit
-0.00286234,-1.7453292e-05,-0.0014137167,-0.0128,-0.0026999998,0.0184,-6.1945,-1.2232,7.5034,sit
-0.001553343,0.0012217305,-0.0023561944,-0.0032,-0.0025,0.0084,-6.1945996,-1.2233,7.5032997,sit
0.00015707963,0.0010995574,-0.0032114058,-0.0030999999,-0.0023999999,-0.0011999999,-6.1945996,-1.2233,7.5032997,sit
0.00022689281,0.0002443461,-0.0011519173,-0.0030999999,-0.0023999999,0.018299999,-6.1945996,-1.2231,7.5032997,sit
-0.00090757123,-0.001256637,0.0004363323,-0.0030999999,0.0071,0.018299999,-6.1945996,-1.2231,7.5032997,sit
-0.0012391837,-0.00033161257,0.001012291,-0.0030999999,-0.012399999,0.028099999,-6.1949,-1.2231,7.503,sit
0.000715585,-0.00015707963,0.0015707964,-0.0126,-0.0026999998,-0.0009999999,-6.1951,-1.2228999,7.5028996,sit
-0.00017453292,-0.0004363323,0.00075049157,-0.0222,-0.0028,0.0285,-6.1951,-1.2235,7.5028,sit
-0.00080285146,0.00045378561,0.0008901179,-0.012399999,-0.0022,0.009,-6.1959,-1.2241,7.5021,sit
-0.0006457718,6.981317e-05,0.00034906584,-0.0116,-0.0016,-0.0098,-6.1965,-1.2246,7.5014997,sit
-0.001012291,0.0006806784,-1.7453292e-05,-0.011,-0.0011999999,-0.0092,-6.1966996,-1.2247,7.5014,sit
0.00034906584,0.0007853982,0.001256637,-0.010799999,-0.0011,0.00059999997,-6.1963,-1.2247,7.5016,sit
0.00055850536,0.0012915436,-0.0006283185,-0.0014,-0.0009999999,0.02,-6.1959996,-1.2243,7.502,sit
0.0022340214,0.00076794485,0.001012291,0.007999999,0.018099999,0.0196,-6.1959996,-1.224,7.502,sit
0.0011519173,-0.00038397242,0.00040142573,-0.0213,-0.0018,0.0196,-6.1959996,-1.2239,7.502,sit
0.00027925268,0.00015707963,-0.0004712389,-0.0115,-0.0018,0.0098,-6.1959996,-1.2239,7.502,sit
0.0004363323,-0.00036651915,-0.0011868239,-0.0016999999,-0.0018,0.0098,-6.1959,-1.224,7.5021,sit
0.00013962634,-8.726646e-05,-0.0009424778,-0.0116,-0.0018,0.029299999,-6.1963,-1.2241,7.5017996,sit
-1.7453292e-05,-0.0011519173,-0.0011868239,-0.021,-0.0016,0.0002,-6.1963997,-1.2239,7.5017,sit
6.981317e-05,-0.0017802358,-0.00026179937,-0.0112,-0.0018999999,0.0297,-6.1966996,-1.2239,7.5014997,sit
0.00059341197,-0.0024958209,-0.00020943952,-0.010799999,-0.0018,0.00049999997,-6.1969,-1.2234,7.5014,sit
-8.726646e-05,-0.0011519173,0.0012391837,-0.0106,-0.0023,0.0104,-6.1969,-1.2229999,7.5014,sit
0.0006806784,-0.0015707964,0.0006283185,-0.030199999,0.0168,0.0202,-6.1973996,-1.2227,7.5010996,sit
-0.00012217305,0.00010471976,-0.0015009831,-0.0101,0.0067,-0.0088,-6.1979,-1.2221999,7.5007,sit
0.00010471976,0.00012217305,-0.0006283185,-0.019399999,0.015999999,-0.0084999995,-6.1980996,-1.2222999,7.5004997,sit
0.00026179937,0.0,-0.00066322513,-0.038799997,-0.0033999998,0.0015,-6.198,-1.2225,7.5006,sit
0.00026179937,0.0005410521,0.0006457718,-0.019299999,-0.0032,0.0112,-6.1976,-1.2226,7.5009,sit
-0.00022689281,0.00031415926,-0.00019198621,-0.0001,-0.0032,0.0109,-6.197,-1.2225,7.5014,sit
-0.00059341197,-0.00031415926,-0.0002443461,-0.0007,-0.0032,0.03,-6.1967998,-1.2224,7.5016,sit
0.00033161257,-0.0004886922,-0.0010471975,-0.0106999995,-0.0033999998,0.0298,-6.1963997,-1.2221,7.502,sit
-5.235988e-05,0.0004886922,-0.0006981317,-0.0013,0.0061,0.0392,-6.1958,-1.2222999,7.5024996,sit
-0.0012042772,0.00026179937,-0.0008901179,0.0176,-0.0033999998,0.0289,-6.1956997,-1.2224,7.5024996,sit
0.0009948377,0.0004363323,-0.00057595863,-0.0117999995,-0.0033,0.0289,-6.1956,-1.2225,7.5025997,sit
-6.981317e-05,-0.00010471976,-0.0011693706,-0.0022,-0.0033,0.019,-6.1956997,-1.2224,7.5024996,sit
-0.00019198621,-0.0004363323,0.00029670598,-0.0117999995,-0.0033999998,0.0093,-6.1956997,-1.2222999,7.5024996,sit
-0.0012391837,-0.0010821042,0.0007330383,-0.0117999995,0.0063,0.0191,-6.1956997,-1.222,7.5025997,sit
0.00019198621,-0.00020943952,0.0012042772,-0.0117999995,0.0158,0.0092,-6.1956997,-1.2221,7.5025997,sit
0.00095993106,0.00019198621,-1.7453292e-05,-0.0117999995,-0.0036,0.0092,-6.1958,-1.2224,7.5024996,sit
0.0008726646,0.0006806784,-0.0010821042,-0.0018999999,-0.0033,-0.0004,-6.1958,-1.2227,7.5024,sit
0.00010471976,0.00020943952,-0.0010821042,-0.0117,-0.0030999999,0.019199999,-6.1958,-1.2226,7.5024,sit
-0.00036651915,0.00027925268,-0.0012042772,-0.0117,-0.0030999999,0.019199999,-6.1958,-1.2228,7.5024,sit
-0.0006457718,-0.00029670598,0.00033161257,-0.0117,-0.0029,0.0094,-6.1958,-1.2228,7.5024,sit
-0.00010471976,-0.00017453292,0.00012217305,-0.021499999,-0.003,0.019199999,-6.1956,-1.2228,7.5024996,sit
-0.0006981317,3.4906585e-05,-0.00022689281,-0.021699999,-0.0029,0.0289,-6.1956997,-1.2225,7.5024996,sit
8.726646e-05,0.00055850536,-0.00020943952,-0.0117999995,0.0064999997,0.0093,-6.1956,-1.2224,7.5025997,sit
0.0007853982,0.00027925268,0.00022689281,-0.0021,-0.0033,0.0092,-6.1959,-1.2224,7.5024,sit
0.0007853982,0.00038397242,-0.0011519173,-0.0312,-0.0033,0.0094,-6.1959,-1.2226,7.5023,sit
0.0009773844,0.00027925268,-0.00143117,-0.0116,-0.0032,0.0095,-6.1956997,-1.2228999,7.5024,sit
0.00036651915,0.00010471976,-0.00061086525,-0.0019999999,-0.0126,0.029,-6.1956,-1.2228,7.5025997,sit
0.00017453292,-0.00012217305,-0.0009250245,-0.0021,0.0067999996,0.019,-6.1956997,-1.2226,7.5024996,sit
-8.726646e-05,0.0016929694,-0.00059341197,-0.0315,0.0163,0.0191,-6.1956,-1.2226,7.5025997,sit
-0.00041887903,0.0022340214,0.0006457718,-0.011899999,0.0064999997,0.0288,-6.1956997,-1.2226,7.5024996,sit
-0.0013788101,0.00090757123,0.0013788101,-0.0117999995,-0.0030999999,0.0093,-6.1958,-1.2225,7.5024,sit
-0.00040142573,0.0012915436,0.00095993106,-0.021499999,-0.0033,0.019199999,-6.1959996,-1.2225,7.5021996,sit
0.0010995574,0.00038397242,-0.0012740904,-0.0115,-0.0032,-0.0002,-6.1959,-1.2221999,7.5024,sit
0.0013962634,0.00033161257,-0.00080285146,-0.0018,0.015999999,0.019199999,-6.1962,-1.2221,7.5021996,sit
0.002321288,-0.0017278759,-0.0014660766,-0.0211,0.006,-0.0001,-6.1959996,-1.2221,7.5023,sit
-0.00080285146,0.00015707963,-0.002024582,-0.0115,-0.0036,0.029099999,-6.1963,-1.2224,7.502,sit
-0.002024582,0.0005410521,-0.0027576203,-0.0014,-0.0033999998,0.0,-6.1966996,-1.2224,7.5017,sit
-0.0006457718,0.00034906584,-0.0026005406,-0.010799999,-0.0033,0.0101,-6.1965,-1.2225,7.5018997,sit
-0.00090757123,-0.00027925268,-0.00036651915,0.0084999995,-0.0032,0.0099,-6.1966,-1.2222999,7.5017996,sit
-0.00083775807,-0.0021642083,0.0005410521,-0.0109,0.0063,0.0198,-6.1967998,-1.2222999,7.5016,sit
-5.235988e-05,-0.0027576203,0.0011519173,-0.030299999,-0.0033999998,0.010199999,-6.1969,-1.2221999,7.5016,sit
-0.00010471976,-0.00036651915,0.00061086525,-0.020399999,-0.0034999999,0.02,-6.1966,-1.2219,7.5018997,sit
0.00029670598,0.00017453292,-0.000715585,-0.0207,0.0058999998,0.0295,-6.1966,-1.2222999,7.5017996,sit
-0.0002443461,0.0011170107,0.00015707963,-0.0109,-0.0033999998,0.01,-6.1972,-1.2227,7.5013,sit
-0.0012740904,0.0017802358,-0.00027925268,-0.0202,0.0067,-0.009,-6.1970997,-1.2233,7.5011997,sit
0.0,0.0009424778,-0.0006283185,-0.00059999997,-0.0025,0.0008,-6.1972,-1.2235,7.5010996,sit
0.00080285146,0.00083775807,-0.0010646508,-0.0103,-0.0022,0.0009,-6.1966,-1.2238,7.5016,sit
0.002443461,0.00017453292,-0.0011170107,0.008599999,-0.0117999995,0.02,-6.1962,-1.2235999,7.5018997,sit
0.0016231562,0.00027925268,-0.00020943952,-0.011299999,-0.0021,0.0099,-6.1959996,-1.2235999,7.5021,sit
0.0010821042,-0.0006457718,0.00031415926,-0.0016999999,-0.0022,0.0391,-6.1959,-1.2235999,7.5021,sit
-5.235988e-05,0.00022689281,-0.00075049157,-0.0116,-0.0021,0.0195,-6.1958,-1.2235999,7.5023,sit
0.0,-0.00020943952,-0.0013264503,0.0078,-0.0021,0.019299999,-6.1960998,-1.2239,7.502,sit
-0.00095993106,0.00040142573,-0.001134464,-0.011399999,-0.0018999999,0.0098,-6.1960998,-1.2236999,7.502,sit
0.00020943952,-0.0013089969,0.00031415926,-0.0016,0.0077,0.0098,-6.1962,-1.2236999,7.5018997,sit
0.00026179937,-0.004118977,0.0026179939,-0.0211,-0.0021,0.0197,-6.1965,-1.2234,7.5017,sit
0.0007853982,-0.0026529005,0.0009424778,-0.030599998,-0.0023,0.00029999999,-6.1963997,-1.2232,7.5017996,sit
0.0021118484,-0.0019896755,0.00031415926,-0.0013,-0.0025,0.0198,-6.1965,-1.2228999,7.5017996,sit
0.0010471975,-0.0008901179,-0.0011519173,-0.0405,0.0069,0.0198,-6.1963997,-1.2228999,7.5017996,sit
0.001134464,-8.726646e-05,-0.0022340214,-0.0111,0.0067999996,0.0198,-6.1963997,-1.2229999,7.5017996,sit
-0.00076794485,0.00033161257,-0.0012915436,-0.0209,-0.0026999998,0.0198,-6.1966,-1.2236999,7.5016,sit
-0.0021642083,0.0012915436,0.00013962634,-0.0011,-0.0117999995,-0.0093,-6.1962,-1.2235,7.5018997,sit
-0.0012217305,0.0010471975,0.0016406095,-0.0015,0.0075,0.0295,-6.1956,-1.2232,7.5024,sit
-0.00038397242,0.00082030473,0.0010471975,0.0077,0.0267,0.0093,-6.1952996,-1.2228,7.5028,sit
0.00020943952,-0.0009250245,-0.00036651915,-0.0122,0.0264,0.009,-6.1949997,-1.2224,7.5031,sit
0.0004363323,0.00080285146,-0.0009250245,-0.012499999,0.0162,0.0185,-6.1948,-1.2224,7.5031996,sit
0.00083775807,0.0011868239,-0.0015009831,-0.022499999,0.0064,0.0184,-6.1947,-1.2225,7.5032997,sit
0.00027925268,0.00061086525,-0.00090757123,-0.003,-0.0032,0.018299999,-6.1947,-1.2228,7.5032997,sit
-0.00080285146,-8.726646e-05,-0.00026179937,-0.003,-0.0128,0.028099999,-6.1949,-1.2231,7.5031,sit
-0.00061086525,-0.00034906584,-0.00017453292,-0.0028,-0.0026,0.028299998,-6.1951,-1.2231,7.5028996,sit
-0.00041887903,-5.235988e-05,0.0009250245,0.0071,-0.0026999998,0.0187,-6.1952,-1.2229999,7.5028996,sit
-0.00012217305,5.235988e-05,-0.00066322513,0.0072,0.0069999998,0.0285,-6.1949997,-1.2229999,7.503,sit
-0.00033161257,0.00013962634,-0.0006283185,-0.012499999,-0.0026999998,0.0186,-6.1952,-1.2229999,7.5028,sit
0.0006457718,0.00033161257,-0.0013613568,-0.0221,0.0069999998,-0.0106,-6.1955,-1.2231,7.5025997,sit
0.00045378561,-0.00020943952,-0.0012042772,-0.0218,-0.0026999998,0.0092,-6.1962,-1.2228,7.5021,sit
0.00041887903,-8.726646e-05,-0.00022689281,-0.011299999,0.0067999996,-0.0098,-6.1962,-1.2227,7.502,sit
0.00013962634,3.4906585e-05,0.0012740904,-0.011299999,0.0067,0.0098,-6.1963,-1.2228999,7.5018997,sit
-0.00029670598,-0.0011519173,0.00027925268,-0.021,-0.0029,0.0098,-6.1963997,-1.2228,7.5018997,sit
0.00031415926,-0.0004886922,0.0004886922,-0.0209,-0.0029,0.0197,-6.1963,-1.2228,7.5018997,sit
0.00019198621,5.235988e-05,-0.0007853982,-0.021,0.0067,0.0295,-6.1962,-1.2228999,7.502,sit
-1.7453292e-05,0.00085521134,-0.00143117,-0.011299999,-0.0028,0.029399998,-6.1963,-1.2229999,7.5018997,sit
0.00020943952,0.00080285146,-0.0015009831,-0.0112,-0.0026999998,0.0099,-6.1963997,-1.2232,7.5018997,sit
-0.00017453292,0.0006981317,-0.0008726646,-0.021,-0.0123,0.0099,-6.1965,-1.2232,7.5017996,sit
-0.00041887903,0.0016929694,-0.00057595863,-0.0208,-0.0025,0.01,-6.1963,-1.2228,7.502,sit
-0.0012217305,-0.00038397242,0.0008726646,-0.0014,0.0067999996,0.029399998,-6.1959996,-1.2228,7.5021996,sit
-0.0026703537,0.0004886922,0.002687807,-0.0115,-0.0029,0.029199999,-6.1956,-1.2225,7.5025997,sit
-0.0006283185,-0.00040142573,-8.726646e-05,0.0075999997,0.0064999997,0.019,-6.1955,-1.2224,7.5027,sit
6.981317e-05,0.00080285146,0.00017453292,-0.012,0.0064,0.0189,-6.1956,-1.2226,7.5025997,sit
0.0019198621,-0.00076794485,-0.00013962634,-0.011899999,-0.0030999999,0.019,-6.1958,-1.2227,7.5024,sit
-0.0009773844,-0.0011693706,-0.0010471975,-0.0313,-0.003,0.019199999,-6.1960998,-1.2229999,7.5021,sit
-0.0006457718,0.00059341197,-0.0019547688,-0.0016999999,-0.0026999998,-0.0099,-6.1959,-1.2232,7.5021996,sit
0.00066322513,-0.0004886922,-0.0032637657,0.0079,-0.0025,0.0095999995,-6.1956997,-1.2233,7.5024,sit
0.00029670598,-0.0012217305,-0.0024260078,-0.0019999999,-0.0023999999,0.019199999,-6.1956997,-1.2234,7.5024,sit
0.00022689281,-0.0026005406,-0.0006457718,-0.0019999999,-0.0023999999,0.019199999,-6.1955,-1.2235,7.5024996,sit
-0.0014835298,-0.002443461,-0.00045378561,-0.0022,-0.0022,0.0093,-6.1956997,-1.2235,7.5024,sit
-0.0014486233,-0.0004886922,-0.00066322513,-0.0117999995,-0.0022,0.0094,-6.1956997,-1.2231,7.5024996,sit
3.4906585e-05,-0.0006806784,-0.0014486233,-0.021699999,0.0071,0.0191,-6.1953998,-1.2234,7.5025997,sit
3.4906585e-05,-8.726646e-05,-0.0012042772,-0.0121,-0.0023999999,0.019,-6.1959996,-1.2234,7.5021,sit
0.00041887903,-0.00029670598,-0.0011519173,-0.0115,0.0072999997,-0.0098,-6.1960998,-1.2236999,7.502,sit
0.0005061455,0.0006981317,-0.0015009831,-0.0212,-0.0019999999,0.0,-6.1959996,-1.224,7.502,sit
0.0006981317,0.0008726646,-0.0012391837,-0.0213,-0.0018,0.0098,-6.1955,-1.2238,7.5024996,sit
0.0020071287,0.0002443461,-0.0012740904,-0.0022,0.0078,0.0191,-6.1951,-1.2239,7.5028,sit
0.0014486233,0.0011868239,-0.0011519173,-0.012399999,0.0079,0.0188,-6.1949,-1.2242,7.5028996,sit
0.00029670598,0.0006806784,-0.0011519173,-0.0028,-0.0015,0.0187,-6.1945,-1.2246,7.5031,sit
0.00045378561,-0.00083775807,-0.0010297443,-0.0032,-0.0207,0.028299998,-6.1942,-1.225,7.5034,sit
-0.00038397242,-0.0016231562,-0.0016057029,0.0061999997,-0.0106,0.018199999,-6.194,-1.2250999,7.5035,sit
-0.00033161257,-0.0013962634,-0.0016929694,-0.0037,-0.0007,0.0083,-6.1941,-1.2249,7.5035,sit
0.0009773844,-0.0027052604,-0.0018325957,-0.0036,0.0088,0.0083,-6.1941,-1.2249,7.5034,sit
-0.00085521134,-0.00286234,-0.0010297443,-0.0036,-0.0008,0.0084,-6.1941,-1.2246,7.5035,sit
-0.00031415926,-0.0031415927,-0.00036651915,-0.0134,0.008599999,0.018099999,-6.1945996,-1.2243,7.5031,sit
0.0006283185,-0.0027576203,-0.0006806784,-0.0325,0.0083,-0.0009999999,-6.1949997,-1.2243999,7.5028,sit
0.0017802358,-0.0021816615,-0.0016231562,-0.0517,-0.0013,0.009,-6.1951,-1.2243999,7.5027,sit
0.00057595863,-0.00012217305,-0.0016057029,-0.0222,-0.0013,-0.00059999997,-6.1949,-1.2247,7.5028,sit
0.00083775807,0.0006806784,-0.0023038345,-0.0126,-0.0011,0.009,-6.1948,-1.2251999,7.5028,sit
0.00026179937,0.00090757123,-0.0014835298,-0.022499999,-0.0201,0.009,-6.194,-1.2253,7.5035,sit
0.00066322513,-0.00013962634,-0.0008901179,0.006,-0.00049999997,0.018099999,-6.1935,-1.2255,7.5038,sit
0.00038397242,5.235988e-05,-0.00019198621,-0.0042,-0.00029999999,0.007999999,-6.1927,-1.2253,7.5045,sit
0.00075049157,0.00036651915,-0.0005410521,0.0047,0.0093,0.026899999,-6.1923,-1.2251999,7.5049,sit
0.0017453292,-0.00033161257,-0.0011693706,-0.015199999,0.009099999,0.0265,-6.1917996,-1.2250999,7.5053,sit
0.00022689281,0.00022689281,-0.00061086525,-0.0058999998,-0.0007,0.0163,-6.1917,-1.2250999,7.5053997,sit
0.00040142573,3.4906585e-05,-0.00057595863,-0.0158,-0.00059999997,0.0358,-6.1917996,-1.2253,7.5053,sit
0.0005410521,-0.00038397242,-0.00075049157,-0.0158,-0.00049999997,0.0163,-6.1917996,-1.2254,7.5053,sit
0.00057595863,0.0006283185,-0.00031415926,-0.0058999998,-0.0004,0.0163,-6.1916,-1.2254,7.5053997,sit
-0.0004363323,0.0010995574,1.7453292e-05,-0.0061,-0.0004,0.0162,-6.1914,-1.2253,7.5056,sit
6.981317e-05,-6.981317e-05,-0.0011170107,0.0033999998,-0.0004,0.0061999997,-6.1913,-1.2253,7.5056996,sit
0.0006457718,-0.0002443461,-0.0006806784,0.0033,-0.0004,0.0061,-6.1910996,-1.2250999,7.5059,sit
0.00059341197,-0.0002443461,-0.0012740904,-0.0066,-0.00059999997,0.0157,-6.1910996,-1.2251999,7.5058,sit
0.00029670598,0.00036651915,-0.0010297443,0.0030999999,-0.00049999997,-0.0037999998,-6.1910996,-1.2251999,7.5059,sit
0.0004886922,-0.00061086525,-0.0012217305,-0.0066,-0.00049999997,0.0157,-6.191,-1.225,7.506,sit
-0.00040142573,-0.00041887903,-0.0021642083,-0.0165,0.009,0.0156,-6.1912,-1.2249,7.5059,sit
0.00055850536,-0.00031415926,0.00038397242,-0.0164,-0.0008,0.0157,-6.1913,-1.225,7.5056996,sit
-0.0021816615,8.726646e-05,0.00038397242,-0.0162,-0.0008,0.015899999,-6.1913,-1.2249,7.5058,sit
-0.002513274,-1.7453292e-05,0.001256637,-0.0162,0.0089,0.0256,-6.1914997,-1.2249,7.5055,sit
0.00059341197,0.0010995574,0.00015707963,-0.015999999,-0.0008,-0.0034999999,-6.1916,-1.225,7.5055,sit
0.00061086525,0.00045378561,-0.0011868239,-0.0257,-0.0008,0.016099999,-6.1917996,-1.2248,7.5053997,sit
0.00090757123,0.0013264503,-0.0012042772,-0.0158,0.0088,0.0064,-6.1917996,-1.2253,7.5053,sit
-0.0004712389,0.00080285146,-0.0016580628,-0.0058999998,-0.010199999,-0.0032,-6.1917996,-1.2257,7.5052,sit
-0.00026179937,0.00083775807,-0.0015184365,-0.0255,-0.0098,0.0164,-6.1914997,-1.2255,7.5055,sit
-0.0007853982,0.0011693706,-0.0016580628,0.0034999999,-0.0002,0.016099999,-6.1914,-1.2256,7.5055,sit
0.00017453292,-0.0004363323,-0.0009424778,-0.0063,0.0095999995,0.025899999,-6.1912,-1.2257999,7.5056996,sit
-0.00052359875,-0.0013962634,0.000715585,0.0032,0.0,0.0257,-6.1910996,-1.2257,7.5058,sit
-0.0022514747,-0.0010821042,0.0017802358,0.0030999999,-0.0001,0.0354,-6.1912,-1.2255,7.5056996,sit
-0.001134464,-0.002391101,0.0010471975,-0.026099999,0.0095,0.015899999,-6.1914,-1.2255,7.5056,sit
-0.0009948377,-0.00082030473,0.0009250245,-0.0063,-0.0002,0.0061999997,-6.1914997,-1.2257999,7.5053997,sit
0.00080285146,0.00066322513,0.0004363323,-0.0061999997,0.0,0.0064,-6.1919,-1.226,7.5051,sit
-0.0012740904,0.0012042772,0.0013613568,-0.0156,0.0002,-0.003,-6.1921997,-1.2262,7.5048,sit
-0.0005410521,0.0015882496,0.0012042772,-0.015299999,0.0004,0.0069999998,-6.1921,-1.2263,7.5049,sit
0.0006981317,0.0023736479,0.0005061455,-0.0056,0.0004,0.0069,-6.1917996,-1.2262,7.5051,sit
0.002321288,0.0021816615,0.00029670598,-0.0058999998,0.0004,0.0165,-6.1916,-1.2263,7.5053,sit
0.0015707964,0.0025481808,0.0021467549,-0.0061,0.00049999997,0.0163,-6.191,-1.2263,7.5058,sit
0.0008726646,0.0005061455,0.0008901179,0.003,0.0004,0.045199998,-6.1907,-1.2263,7.5060997,sit
-0.0006806784,0.00019198621,-0.00026179937,0.0026999998,0.0004,0.0155,-6.1906,-1.226,7.5060997,sit
0.00055850536,0.00033161257,-0.00080285146,-0.0071,0.0002,0.035099998,-6.1907997,-1.2262,7.506,sit
8.726646e-05,-0.00082030473,0.0014486233,-0.0069,-0.0093,0.0156,-6.1907997,-1.2257999,7.506,sit
-0.0017976891,-0.0014660766,0.0025830872,0.0028,0.0098,0.0156,-6.1910996,-1.2255,7.5058,sit
-0.0019896755,0.00022689281,0.0027925267,-0.0164,0.0095,0.0354,-6.1916,-1.2250999,7.5055,sit
-0.0016929694,-0.0005061455,0.0013788101,-0.015899999,-0.00059999997,0.0063,-6.192,-1.2245,7.5052,sit
0.0004712389,-0.0017802358,0.00095993106,-0.0253,0.0084,0.0262,-6.1926,-1.2239,7.5049,sit
0.0004712389,-0.0020594886,-6.981317e-05,-0.0346,0.0176,-0.0028,-6.1931996,-1.224,7.5044,sit
0.0007330383,0.00027925268,-0.00029670598,-0.0339,-0.0016999999,-0.0121,-6.1934,-1.2241,7.5042,sit
0.0008726646,0.0009948377,5.235988e-05,-0.024,-0.011399999,0.0075999997,-6.1931,-1.2239,7.5044,sit
-0.00010471976,0.0012391837,0.00033161257,-0.0046,-0.0018,0.026999999,-6.1927,-1.2235999,7.5048,sit
-0.00013962634,0.00045378561,0.0017453292,0.0047,0.0075999997,0.0168,-6.1924996,-1.2236999,7.5049,sit
-0.0022165682,0.000715585,0.0020071287,0.0045,-0.0021,0.0067999996,-6.1923,-1.2235999,7.5051,sit
-0.00090757123,-8.726646e-05,0.003036873,-0.0053999997,0.0075999997,0.0263,-6.1919,-1.2234,7.5055,sit
-0.00026179937,0.00075049157,0.00076794485,-0.0058,-0.0023,0.0357,-6.1914997,-1.2233,7.5059,sit
-0.0006457718,0.00075049157,0.0014486233,-0.0061999997,-0.0023999999,0.0256,-6.1914,-1.2232,7.5059,sit
-0.00082030473,0.00075049157,0.0004712389,-0.0063,-0.0025,0.0255,-6.1919,-1.2231,7.5056,sit
0.00020943952,0.00012217305,0.00033161257,-0.0156,-0.0026,-0.0034999999,-6.192,-1.2233,7.5055,sit
0.00015707963,-0.00052359875,0.0008901179,-0.0056999996,-0.0122,0.016099999,-6.1923,-1.2231,7.5053,sit
-3.4906585e-05,6.981317e-05,0.0012740904,-0.0251,-0.0026,0.0064999997,-6.1923,-1.2229999,7.5052,sit
-0.00038397242,0.00038397242,0.0012391837,-0.0053999997,0.0069999998,0.0262,-6.1917,-1.2225,7.5058,sit
0.00041887903,0.00017453292,0.00083775807,0.013499999,0.0064999997,0.0158,-6.1919,-1.2222999,7.5056996,sit
-0.00055850536,-1.7453292e-05,-0.00019198621,-0.0156,0.0063,0.015899999,-6.1923,-1.2222999,7.5053,sit
-0.001012291,0.0002443461,-8.726646e-05,-0.015199999,-0.0033999998,-0.0032,-6.1924996,-1.2224,7.5052,sit
-0.00019198621,-0.00029670598,0.0006457718,-0.015,-0.0033,0.0164,-6.1924,-1.2222999,7.5053,sit
0.0004712389,0.00045378561,0.0005410521,-0.0053,-0.0033999998,0.0163,-6.1924,-1.2221999,7.5053,sit
0.0004363323,0.00017453292,0.0004363323,-0.0150999995,-0.0034999999,0.0163,-6.1924,-1.2219,7.5053,sit
-0.00026179937,0.0,-3.4906585e-05,-0.0053,0.0058,0.0064999997,-6.1924996,-1.2218,7.5053,sit
-0.00026179937,0.00075049157,0.00029670598,-0.0052,-0.0039,0.0064999997,-6.1927,-1.2217,7.5051,sit
-5.235988e-05,0.0016057029,-0.0006457718,-0.034399997,-0.0041,0.0165,-6.1927,-1.2217,7.5052,sit
-0.00012217305,0.0015009831,0.00082030473,-0.024699999,0.0056999996,0.0361,-6.1928997,-1.2218,7.5049,sit
-0.0007853982,0.00026179937,0.0016755161,-0.034199998,-0.0039,0.0069,-6.193,-1.2215999,7.5049,sit
-0.0006283185,0.003577925,0.0019024089,-0.0145,0.0056,0.0069,-6.193,-1.2214,7.5049,sit
0.0005061455,0.0011693706,0.00034906584,-0.0145,0.0053999997,0.0265,-6.1928997,-1.2213,7.5049996,sit
0.0004886922,0.0020594886,8.726646e-05,-0.0047999998,-0.0044,0.0264,-6.1928,-1.2214,7.5051,sit
0.00029670598,0.00082030473,-0.00026179937,-0.0049,-0.0044,0.0263,-6.1927,-1.2214,7.5051,sit
-0.0012042772,0.0006981317,-0.00019198621,-0.005,-0.0044,0.0263,-6.1928997,-1.2215999,7.5049,sit
-0.0018151425,0.0023736479,-0.0013962634,-0.0047999998,-0.0042,0.0069,-6.1931996,-1.2215999,7.5048,sit
-1.7453292e-05,0.000715585,-0.0016406095,-0.0045,-0.0042,0.0069999998,-6.1931996,-1.2214999,7.5048,sit
0.00038397242,-0.00012217305,-0.0004886922,-0.0143,-0.0042999997,0.0266,-6.1938,-1.2213,7.5042996,sit
-0.0007853982,-0.0013788101,-0.00040142573,-0.0039,-0.0044,0.0075,-6.194,-1.2212,7.5041,sit
-0.00055850536,-0.0015184365,0.0011170107,-0.0233,-0.0045,0.0075999997,-6.1944,-1.2211,7.5038,sit
0.00017453292,0.0,0.0010646508,-0.0229,0.0050999997,-0.0213,-6.1945,-1.2211,7.5037,sit
-8.726646e-05,-3.4906585e-05,0.0009773844,-0.022799999,0.0050999997,0.0179,-6.1945996,-1.2213,7.5035996,sit
-0.00012217305,0.00029670598,0.0015358897,-0.022699999,-0.0044,0.018,-6.1949997,-1.2218,7.5031996,sit
0.00017453292,0.0019547688,-0.00017453292,-0.0026999998,-0.0039999997,0.0084999995,-6.1949997,-1.222,7.5031996,sit
-0.0006283185,0.0021467549,0.00033161257,-0.0223,-0.0037999998,0.0185,-6.1949997,-1.222,7.5031996,sit
0.00015707963,0.0013788101,0.00031415926,-0.0223,-0.013599999,0.0184,-6.1948,-1.2221999,7.5032997,sit
0.0010821042,0.0008901179,0.00059341197,-0.0029,-0.0036,0.0084999995,-6.1945996,-1.2221,7.5035,sit
0.00095993106,0.0004363323,0.00082030473,-0.0030999999,-0.0036,0.018099999,-6.1945,-1.222,7.5035996,sit
0.00040142573,-3.4906585e-05,0.0017278759,0.0064999997,-0.0037999998,0.0278,-6.1944,-1.2217,7.5037,sit
-0.0006283185,8.726646e-05,0.00020943952,-0.0033,0.0056,0.0179,-6.1945,-1.2214999,7.5037,sit
0.00083775807,-0.00076794485,-0.00036651915,-0.012999999,-0.0042,0.0179,-6.1944,-1.2213,7.5038,sit
0.0011693706,-0.00027925268,-0.00075049157,0.0064,0.0053,0.0178,-6.1945996,-1.2212,7.5037,sit
-0.00027925268,-0.0002443461,0.00015707963,-0.0030999999,0.0052,0.0179,-6.1945996,-1.2212,7.5035996,sit
-0.00022689281,-0.00090757123,0.00013962634,-0.0030999999,-0.0045,0.018,-6.1944,-1.2212,7.5038,sit
-0.0022340214,-0.0015707964,0.00022689281,0.0064,-0.0046,0.007999999,-6.1951,-1.2211,7.5031996,sit
0.0011170107,-0.0022514747,0.0012042772,-0.0222,-0.0047,-0.011,-6.1952996,-1.2206,7.5031,sit
0.0008726646,-0.001134464,8.726646e-05,-0.022,0.0046,0.0087,-6.1956,-1.2205,7.5028996,sit
0.0004363323,-1.7453292e-05,-0.0008901179,-0.011899999,0.0045,-0.0008,-6.1955,-1.2203,7.503,sit
0.00055850536,-0.000715585,-0.00022689281,-0.0218,0.0042999997,0.0284,-6.1956,-1.2203,7.503,sit
-0.00038397242,0.00033161257,-0.00015707963,-0.021699999,-0.0053999997,0.0088,-6.1953998,-1.2202,7.5031996,sit
0.00015707963,0.00020943952,0.00040142573,-0.0023,0.0042,0.0184,-6.1952,-1.2200999,7.5032997,sit
-0.00036651915,0.00075049157,0.0017627826,-0.0123,0.0041,0.018299999,-6.1949,-1.22,7.5035996,sit
-0.0009424778,0.00020943952,0.00017453292,-0.0028,0.0138,0.018,-6.1945,-1.2198,7.5039997,sit
-3.4906585e-05,0.00052359875,0.00059341197,-0.012999999,-0.006,0.0274,-6.194,-1.2192999,7.5045,sit
0.00034906584,0.0006981317,-0.0005061455,0.006,0.0131,0.026899999,-6.1935997,-1.2193999,7.5048,sit
0.00085521134,0.0007330383,-0.00066322513,0.0056,-0.0063,0.0267,-6.1934,-1.2193999,7.5049,sit
0.0012042772,0.0,-3.4906585e-05,-0.0042999997,-0.0063,0.0167,-6.1934,-1.2196,7.5049,sit
0.0006981317,8.726646e-05,-0.00029670598,-0.014099999,-0.0061999997,0.0167,-6.1931,-1.2196,7.5051,sit
-0.00026179937,0.00012217305,-0.00033161257,0.0050999997,-0.0061,0.0165,-6.1931996,-1.2192,7.5051,sit
0.00036651915,0.00027925268,0.0009250245,-0.0143,0.012999999,0.0263,-6.1934,-1.2192,7.5049,sit
-0.00033161257,0.00061086525,0.00019198621,-0.014099999,0.0032,0.0069,-6.1935997,-1.2192,7.5048,sit
0.00052359875,0.0006806784,0.00022689281,-0.023699999,-0.0064999997,0.0168,-6.1937,-1.2192999,7.5046997,sit
-6.981317e-05,-0.0004363323,0.00010471976,-0.023599999,-0.0064999997,0.0169,-6.194,-1.2192,7.5045,sit
0.00034906584,0.00031415926,-5.235988e-05,-0.0332,-0.0064999997,0.017099999,-6.1941,-1.2192,7.5044,sit
-0.00020943952,-0.0002443461,0.0004712389,-0.013499999,-0.0066,0.0074,-6.1942,-1.2192,7.5042996,sit
0.00027925268,-0.0006806784,0.00031415926,-0.0231,-0.0066,0.0075,-6.1938996,-1.2195,7.5045,sit
-0.0010995574,0.0004886922,-0.00022689281,0.0058999998,-0.0061999997,0.0072999997,-6.194,-1.2193999,7.5044,sit
-0.00010471976,0.00034906584,0.00017453292,-0.013499999,-0.0063,0.017199999,-6.1938996,-1.2195,7.5045,sit
-0.0014835298,0.0012042772,0.00019198621,-0.0037999998,-0.0061999997,0.017099999,-6.1938996,-1.2192999,7.5046,sit
-0.0012217305,-0.00027925268,0.00019198621,-0.0037999998,0.0033,0.026899999,-6.1938996,-1.2192999,7.5045,sit
-0.00082030473,0.00066322513,0.00082030473,-0.0332,-0.0064,0.017099999,-6.194,-1.2193999,7.5045,sit
0.0013962634,0.00061086525,-0.00019198621,-0.013499999,-0.0064,0.017099999,-6.1938,-1.2192,7.5046,sit
0.00075049157,0.0007853982,0.00076794485,-0.0039,0.0032,0.016999999,-6.1935,-1.2192,7.5048,sit
0.0007853982,0.0006981317,0.0007853982,-0.0042,-0.0064999997,0.0266,-6.1935997,-1.2192999,7.5048,sit
0.0005410521,0.0010297443,-0.00034906584,-0.0139,0.0033,0.0168,-6.1937,-1.2192,7.5046997,sit
-0.0009948377,0.0017627826,-0.00020943952,-0.0138,0.0030999999,0.0169,-6.1938,-1.2193999,7.5046,sit
8.726646e-05,0.0024085543,-0.00085521134,-0.0137,-0.0063,0.0268,-6.1937,-1.2196,7.5046,sit
-0.00066322513,0.001134464,0.001553343,-0.0138,-0.0061,0.016999999,-6.1938996,-1.2197,7.5045,sit
0.00033161257,0.00022689281,0.0014835298,-0.033299997,-0.0061,0.0367,-6.1942,-1.2196,7.5042,sit
0.0006981317,0.0023387412,0.00143117,-0.0133,-0.0061,-0.0021,-6.1944,-1.2195,7.5041,sit
0.00038397242,-0.00017453292,-6.981317e-05,-0.0229,-0.0063,0.0175,-6.1945,-1.219,7.5041,sit
0.00036651915,-0.00010471976,-0.0004363323,-0.012999999,0.0128,0.0273,-6.1945996,-1.2189,7.5039997,sit
-0.00075049157,-0.0018849556,-0.0004363323,-0.0128999995,0.0029,0.0274,-6.1948,-1.2192,7.5038,sit
-0.00143117,0.00057595863,-0.0011519173,-0.022499999,-0.0163,0.0276,-6.1948,-1.2191,7.5038,sit
-0.0015009831,0.0004363323,-0.0013439035,0.0067999996,0.0030999999,0.007999999,-6.1951,-1.2191,7.5035996,sit
0.00041887903,-0.00010471976,-0.00061086525,-0.031999998,-0.0067,0.018,-6.1952,-1.2186999,7.5035,sit
0.00031415926,0.0005061455,0.00052359875,-0.0123,0.0026999998,0.0083,-6.1956997,-1.2188,7.5031,sit
-0.002094395,-0.0027401668,0.00040142573,-0.0019999999,-0.0069999998,-0.0009999999,-6.1956997,-1.2188,7.5031,sit
-0.0019373155,-0.0021642083,0.0015009831,-0.0117999995,-0.0069,0.0087,-6.1959,-1.2186999,7.503,sit
-0.0006806784,-0.00031415926,0.0004886922,-0.0312,0.0026999998,0.0088,-6.1956997,-1.2188,7.5031,sit
-0.00033161257,-0.00038397242,-0.00066322513,-0.021699999,0.0028,0.0185,-6.1958,-1.2192999,7.503,sit
-0.00019198621,0.0010995574,0.00038397242,-0.0117,-0.0064999997,0.0088,-6.1958,-1.2197,7.5028,sit
0.00013962634,0.00075049157,-0.00029670598,-0.0117,-0.006,0.009,-6.1959996,-1.2199,7.5027,sit
-0.00019198621,0.0016231562,-0.00052359875,-0.0115,-0.0058,-0.00059999997,-6.1956997,-1.2199,7.5028996,sit
0.0008726646,0.0012217305,-0.00040142573,0.0077,-0.0058,0.0187,-6.1951,-1.2202,7.5034,sit
0.0017976891,0.000715585,-0.001134464,-0.0026,-0.0055,0.0379,-6.1945,-1.2204,7.5038,sit
0.0007853982,0.00027925268,-0.00059341197,0.0064999997,-0.0053999997,0.0276,-6.1938996,-1.2205,7.5042996,sit
5.235988e-05,-0.00017453292,5.235988e-05,0.0157,-0.0052,0.027099999,-6.1931996,-1.2207999,7.5049,sit
-0.00143117,0.00041887903,0.00040142573,0.015,-0.0049,0.0167,-6.1931,-1.2208999,7.5049,sit
-0.0006283185,0.00036651915,-0.00082030473,0.0050999997,-0.0049,0.0167,-6.1931,-1.2208999,7.5049,sit
0.000715585,0.00019198621,-0.002391101,-0.0046,-0.0047999998,0.0167,-6.1935,-1.2211,7.5046,sit
0.0010995574,-0.0013962634,-0.0032986724,-0.023799999,-0.0047,0.0072,-6.1937,-1.221,7.5044,sit
0.0010297443,-0.0029496064,-0.00075049157,-0.023599999,-0.0047,0.017199999,-6.1938996,-1.2208999,7.5042996,sit
0.00033161257,-0.0061784657,0.00066322513,-0.013599999,-0.0047999998,0.0075,-6.1942,-1.2208999,7.5039997,sit
0.0006283185,-0.0045727626,0.0008901179,-0.0231,-0.0047999998,-0.0018999999,-6.1941,-1.2207999,7.5041,sit
0.0005410521,-0.003630285,0.0010821042,-0.0134,0.0047999998,0.0371,-6.1942,-1.2208999,7.5039997,sit
-0.00090757123,-0.0028797933,8.726646e-05,-0.0133,0.0047999998,0.0176,-6.1944,-1.2211,7.5038,sit
-0.00041887903,-0.0010471975,0.00052359875,-0.0425,-0.0047,0.007999999,-6.1945996,-1.2214999,7.5035996,sit
-0.002321288,0.00082030473,0.0012915436,-0.0325,-0.023799999,0.0082,-6.1945,-1.2221999,7.5035,sit
-0.0004712389,0.0044505894,-0.00026179937,-0.0032,-0.0133,-0.011299999,-6.1942,-1.2222999,7.5038,sit
0.00090757123,0.005742133,0.0011170107,-0.0034999999,-0.0033999998,-0.0016999999,-6.1933,-1.2221999,7.5046,sit
0.0011868239,0.0038048178,-0.0004363323,-0.0044,0.0061,0.036599997,-6.1924996,-1.222,7.5052,sit
0.0004363323,0.003700098,-0.0002443461,-0.0052,0.0255,0.0262,-6.192,-1.2217,7.5056996,sit
-0.0007853982,0.0021467549,-0.0006806784,0.023599999,0.0056999996,0.015899999,-6.1914,-1.2219,7.5060997,sit
-0.00066322513,-0.00026179937,-8.726646e-05,0.0231,-0.0039,0.0253,-6.1913,-1.2219,7.5063,sit
0.000715585,-0.004537856,-0.00038397242,0.0033,-0.0039,0.0447,-6.1914,-1.2221,7.5060997,sit
0.00143117,-0.0084823,-0.0006806784,-0.0063,-0.0037,0.035099998,-6.1921,-1.2221999,7.5056,sit
0.0016057029,-0.01150172,0.00034906584,0.0139,-0.0036,0.025799999,-6.193,-1.2219,7.5049,sit
0.00057595863,-0.011135201,0.0022165682,-0.0047999998,-0.0037999998,-0.0028,-6.1935,-1.2218,7.5044,sit
-0.0021816615,-0.0090233525,0.0021991148,-0.043399997,0.0056999996,0.0074,-6.1941,-1.2217,7.5038996,sit
-0.0017802358,-0.0059515727,0.001972222,-0.042799998,-0.0039999997,-0.0116,-6.1945,-1.2219,7.5035996,sit
-0.001012291,-0.004834562,0.0021293017,-0.052199997,0.0058999998,-0.0015,-6.1945996,-1.222,7.5035,sit
-0.0009250245,-0.0007330383,0.00040142573,-0.062,-0.0037,-0.0211,-6.1938996,-1.222,7.5041,sit
-0.0009424778,0.00059341197,0.0005061455,-0.0431,-0.0037999998,-0.0117999995,-6.1926,-1.2219,7.5052,sit
0.0,0.0010471975,0.0,-0.024699999,0.0058,0.0164,-6.1909,-1.2215999,7.5066,sit
0.00061086525,0.00020943952,-0.0005061455,-0.0166,-0.0139999995,0.015,-6.1893,-1.2212,7.508,sit
-0.00083775807,-0.00040142573,0.0013613568,-0.0084,0.015,0.042999998,-6.1879997,-1.2213,7.5091,sit
-0.00012217305,-0.0015707964,0.0013264503,0.0392,0.0052,0.041899998,-6.1871,-1.2213,7.5098,sit
0.00022689281,-0.0042062434,0.00057595863,0.0187,0.0053,0.051,-6.1865,-1.2212,7.5102997,sit
0.00057595863,-0.006736971,0.00010471976,0.0279,-0.0045,0.050499998,-6.1863,-1.2213,7.5105,sit
0.0010646508,-0.008953539,-0.00066322513,0.0081,-0.0044,0.0308,-6.1864,-1.2214,7.5104,sit
0.00017453292,-0.011030481,-0.0021816615,-0.0211,-0.0044,0.021,-6.1865997,-1.2214,7.5102,sit
0.0002443461,-0.0104370685,-0.0023736479,-0.0307,-0.023899999,0.011399999,-6.1867,-1.2214,7.5101,sit
-0.0005410521,-0.007958702,-0.002687807,-0.0208,-0.0042999997,-0.007999999,-6.1867,-1.2214,7.5101,sit
-0.0033510323,-0.006021386,-0.0035081117,-0.0208,-0.0044,-0.007999999,-6.1865997,-1.2212,7.5102,sit
-0.0034208454,-0.0017453292,-0.0015882496,-0.0307,0.0052,0.0015,-6.186,-1.2211,7.5108,sit
-0.0035604716,-0.0034557518,0.00085521134,-0.0412,0.0149,0.0206,-6.185,-1.221,7.5116,sit
-0.0030892328,-0.0042935098,0.0021816615,-0.051999997,0.005,0.01,-6.1836,-1.2208999,7.5126996,sit
-0.00010471976,-0.0025830872,-6.981317e-05,-0.0337,0.0245,0.0187,-6.1819,-1.2212,7.5140996,sit
0.0010646508,-0.00424115,-0.0016580628,-0.0158,0.024799999,0.0075,-6.1802998,-1.2214,7.5154,sit
0.0033510323,-0.0044854963,-0.00408407,0.0021,0.015199999,0.025799999,-6.179,-1.2218,7.5164,sit
0.001850049,-0.0052010813,-0.002984513,-0.0089,-0.0039,0.0347,-6.178,-1.2228,7.5169997,sit
-0.00022689281,-0.004066617,-0.003944444,-0.0099,-0.0128,0.0046,-6.1777,-1.2235,7.5171,sit
-0.00031415926,0.00059341197,-0.0047996556,0.029,-0.012,0.0045,-6.1772,-1.2239,7.5175,sit
0.0034382986,0.0027576203,-0.006632251,0.0089,-0.0116,0.0335,-6.1766996,-1.2241,7.5179,sit
0.004537856,0.005550147,-0.006754424,0.0083,-0.0016,0.033099998,-6.1762,-1.2241,7.5182996,sit
0.0017976891,0.006928957,-0.004956735,0.0176,0.0081,0.0033,-6.1755,-1.2242,7.5189,sit
0.00059341197,0.0073652896,-0.0027227136,0.0071,-0.0016,0.0321,-6.1748,-1.2242,7.5195,sit
0.00026179937,0.0085870195,-0.0017802358,0.0064,-0.0212,0.0316,-6.1738997,-1.2243,7.5200996,sit
0.00034906584,0.00842994,-0.0013089969,0.0154,0.0082,0.0407,-6.1731997,-1.2248,7.5206,sit
0.00015707963,0.010070549,-0.0044331364,0.0343,-0.0009,0.049999997,-6.1731997,-1.2254,7.5206,sit
-0.0010471975,0.00837758,-0.002268928,0.034199998,-0.00029999999,0.0501,-6.1735,-1.2257,7.5203,sit
-0.0020769418,0.00041887903,-0.0013439035,0.0149,0.0,0.0307,-6.1741,-1.2258999,7.5196996,sit
0.001256637,-0.003159046,-0.0011519173,0.044999998,0.0001,0.0313,-6.1751,-1.2262,7.5189,sit
0.003630285,-0.009320058,-0.0013788101,0.0165,0.010199999,0.0223,-6.1761,-1.2264999,7.5179996,sit
0.0036826448,-0.010262536,-0.0005061455,0.0077,0.0301,0.0232,-6.1773996,-1.2267,7.5168996,sit
0.00010471976,-0.008761553,0.000715585,-0.030199999,0.030199999,0.0047,-6.1786,-1.2268,7.5158997,sit
-0.003874631,-0.006492625,0.0048171086,-0.0583,0.0106999995,0.0056999996,-6.18,-1.2272999,7.5147,sit
-0.0045204028,-0.0022863813,0.0059166662,-0.0569,-0.0082,-0.0224,-6.1812,-1.2277,7.5136,sit
-0.0030892328,0.0036826448,0.0026529005,-0.0557,-0.0176,-0.0213,-6.1814,-1.2282,7.5133996,sit
-0.0011868239,0.005078908,0.0009424778,-0.0654,-0.0072999997,-0.011299999,-6.1809998,-1.2282,7.5137,sit
-1.7453292e-05,0.0071383966,-0.0023561944,-0.0559,-0.0074,-0.021399999,-6.1794,-1.2278,7.5151,sit
0.0021467549,0.01160644,-0.0022863813,-0.0084999995,-0.0078,0.0163,-6.178,-1.2272999,7.5162997,sit
0.0018849556,0.013735741,-0.002687807,0.0195,0.011299999,0.024899999,-6.1766996,-1.2271999,7.5174,sit
0.0013962634,0.021135937,-0.0040317103,0.0378,-0.0083,0.0337,-6.1759,-1.2271999,7.5181,sit
-0.0020769418,0.026686084,-0.0025830872,0.046699997,0.0014,0.0526,-6.1756997,-1.2271999,7.5182,sit
-0.004468043,0.024783675,-0.0009948377,0.0367,0.0111,0.0426,-6.1763,-1.2272999,7.5176997,sit
-0.0035953782,0.02141519,-0.0016580628,0.0275,0.0015,0.0431,-6.1770997,-1.2274,7.5169997,sit
-0.00019198621,0.012252212,-0.0048694685,0.0381,0.0015,0.033999998,-6.1780996,-1.2277,7.5161996,sit
0.003700098,0.0015882496,-0.0090233525,0.009699999,0.0116,0.0251,-6.1798,-1.2276,7.5147996,sit
0.006562438,-0.008063421,-0.010227629,-0.0081,0.0116,0.0264,-6.1818,-1.2277,7.5130997,sit
0.006510078,-0.019600047,-0.007278023,0.0036,0.021499999,0.0477,-6.1849,-1.2279999,7.5105,sit
0.0056723203,-0.026319565,-0.003822271,0.0067,0.0021,0.0307,-6.1888,-1.2286,7.5072,sit
0.0017453292,-0.024312437,-0.00057595863,0.020399999,0.0028,-0.0050999997,-6.1924996,-1.2293999,7.5039997,sit
0.00012217305,-0.026965337,0.0013439035,-0.0444,0.0036,-0.0018999999,-6.1956997,-1.2300999,7.5013,sit
6.981317e-05,-0.028693212,0.0019198621,-0.060799997,0.0042999997,-0.0286,-6.1973996,-1.2307999,7.4996996,sit
0.0033335788,-0.024521876,-0.002094395,-0.1278,-0.0047999998,-0.0369,-6.1973996,-1.2314,7.4996,sit
0.0052359877,-0.016615534,-0.007173303,-0.13759999,-0.043399997,-0.0466,-6.1960998,-1.2315999,7.5007,sit
0.002984513,-0.011571533,-0.007871435,-0.1095,-0.052899998,-0.027999999,-6.193,-1.2315999,7.5032997,sit
0.0030019663,-0.007923795,-0.006387905,-0.0635,-0.0334,-0.0011999999,-6.1889997,-1.2312,7.5066,sit
0.0042586033,-0.0022863813,-0.004118977,-0.0382,0.0053,0.015,-6.1853,-1.231,7.5097,sit
0.003577925,0.0042586033,-0.004694936,0.0071,-0.0045,0.011899999,-6.1808996,-1.2307999,7.5133996,sit
0.0013089969,0.0118333325,-0.003577925,0.041899998,0.0246,0.0279,-6.1770997,-1.2306,7.5165997,sit
0.0,0.011082841,-0.002042035,0.0479,0.034199998,0.0639,-6.1733,-1.2303,7.5196996,sit
-0.00045378561,0.012548917,-0.0014660766,0.0246,0.0045,0.070599996,-6.1707,-1.2304,7.5218,sit
-0.00143117,0.014137167,-0.0008726646,0.080699995,-0.0050999997,0.058599997,-6.1686997,-1.2308999,7.5232997,sit
-0.0035604716,0.017592918,-0.0012740904,0.0788,-0.0242,0.057099998,-6.1674,-1.2313,7.5243998,sit
-0.0035081117,0.010105456,0.0024260078,0.0578,-0.014099999,0.0659,-6.1668997,-1.2311,7.5248,sit
-0.00726057,0.008831366,0.0046251225,0.0378,0.0053,0.0655,-6.1674,-1.2312,7.5242996,sit
-0.009128072,0.0038048178,0.005427974,0.0285,0.015199999,0.0267,-6.1691,-1.2314,7.5228996,sit
-0.006928957,0.004363323,0.0045727626,0.020399999,0.0154,-0.011,-6.1707997,-1.2317,7.5214996,sit
-0.005305801,0.0017104227,0.002042035,-0.0072999997,0.035299998,0.0295,-6.1728,-1.2319,7.5197997,sit
-0.0026703537,-0.0012042772,0.003106686,-0.044499997,0.055099998,0.0116,-6.1747,-1.2322,7.5182,sit
-0.0019547688,0.000715585,0.0032986724,-0.0328,0.025999999,-0.0063,-6.1773,-1.2329,7.516,sit
-0.004555309,0.007871435,0.004886922,-0.0989,0.0169,-0.053099997,-6.1789,-1.2330999,7.5146,sit
-0.0036128315,0.013404129,0.005131268,0.0007,-0.031799998,0.0069999998,-6.1802998,-1.2336999,7.5133996,sit
-0.0035430184,0.016842427,0.0053407075,-0.085999995,-0.021499999,0.018099999,-6.1809998,-1.2343999,7.5126996,sit
-0.0023038345,0.02019346,0.001256637,-0.0167,-0.011,0.0187,-6.1818,-1.2348,7.5119,sit
0.0018325957,0.019355701,-0.0006806784,0.0036,-0.039899997,0.0391,-6.1821,-1.2354,7.5116,sit
0.004886922,0.0113795465,-0.004537856,0.033299997,-0.0002,0.0296,-6.1819997,-1.2354,7.5116997,sit
0.00816814,0.0023561944,-0.008517207,0.042999998,0.0095999995,0.0589,-6.1819997,-1.2353,7.5116997,sit
0.0069464105,-0.0044854963,-0.006405358,0.0431,-0.00029999999,0.0786,-6.1833,-1.2353,7.5105996,sit
0.0010471975,-0.009442232,-0.003996804,0.054199997,-0.01,0.0404,-6.1854997,-1.2353,7.5088997,sit
0.00038397242,-0.013281955,-0.0017802358,0.026899999,0.019199999,0.0422,-6.1881,-1.2350999,7.5067,sit
-0.0025481808,-0.011990412,0.0014486233,-0.0095999995,0.0191,0.0345,-6.1912,-1.2353,7.5041,sit
-0.00038397242,-0.014765485,0.0032114058,-0.0457,0.0095,-0.0019999999,-6.1941,-1.2350999,7.5017996,sit
0.00022689281,-0.014067354,0.0027576203,-0.072299995,0.0093,-0.019299999,-6.1958,-1.2349,7.5003996,sit
0.0004712389,-0.009389872,0.0023561944,-0.080299996,0.009099999,-0.0179,-6.1959996,-1.2348,7.5003,sit
0.0019547688,-0.0043807765,0.00017453292,-0.0802,-0.0008,-0.0276,-6.1951,-1.2344999,7.501,sit
0.003822271,0.0015882496,-0.0010471975,-0.081,0.0087,-0.0087,-6.1935997,-1.2349,7.5021996,sit
0.0010995574,0.0057072267,-0.0021642083,-0.053099997,0.009,-0.0099,-6.1916,-1.235,7.5038996,sit
0.00066322513,0.010210176,-0.0014137167,-0.0061,-0.0103,0.0177,-6.1896,-1.2351999,7.5053997,sit
-0.00029670598,0.012199852,-0.0009250245,0.0115,-0.00029999999,0.025999999,-6.1877,-1.2349,7.5070996,sit
-0.0018151425,0.01303761,-0.0015358897,0.0488,-0.03,0.053799998,-6.1857,-1.2344999,7.5088,sit
-0.0026005406,0.012705997,0.00020943952,0.0565,0.0087,0.051999997,-6.1843,-1.2342,7.5099998,sit
-0.00075049157,0.0113620935,-0.00015707963,0.0552,0.0083,0.080299996,-6.1836996,-1.2339,7.5105996,sit
-0.0012042772,0.007906342,-1.7453292e-05,0.0545,0.0178,0.060099997,-6.1839,-1.2334,7.5105,sit
-0.0002443461,0.0052185343,-0.00041887903,0.0547,0.0173,0.0602,-6.1846,-1.2335,7.5098996,sit
0.00031415926,0.0010821042,0.00038397242,0.0162,0.0075999997,0.0314,-6.1861,-1.2335,7.5085998,sit
0.0004886922,-0.0012740904,3.4906585e-05,-0.0018,0.0175,0.0326,-6.1879,-1.2336999,7.5070996,sit
0.0024609142,-0.0033335788,-0.00041887903,0.0,0.0275,0.0145,-6.1899,-1.2341,7.5053997,sit
0.0019373155,-0.0034208454,-0.00076794485,-0.037299998,0.0083,0.0064,-6.1917996,-1.2344999,7.5038,sit
0.00075049157,-0.0055152406,-0.0006806784,-0.0256,0.0087,0.007999999,-6.1935,-1.2346,7.5024,sit
0.0006981317,-0.0068591437,-0.0010297443,-0.0337,-0.0106999995,-0.00029999999,-6.1945996,-1.2348,7.5014,sit
0.0006457718,-0.005934119,-0.0011868239,-0.0423,-0.0106,0.0104,-6.1953998,-1.2349,7.5007,sit
0.0007853982,-0.0028797933,-0.00083775807,-0.0415,-0.0007,0.0013,-6.1956,-1.2348,7.5006,sit
-0.00034906584,-0.00059341197,-0.00012217305,-0.0315,-0.0105,0.0112,-6.1955,-1.2347,7.5007,sit
-0.0005061455,0.00013962634,-0.0006283185,-0.0317,-0.0008,0.0111,-6.1949997,-1.2343999,7.5010996,sit
-0.0012042772,0.0017802358,-0.00012217305,-0.0223,0.008599999,0.020499999,-6.1945,-1.2342,7.5016,sit
-0.00010471976,0.0044331364,-0.0009424778,-0.012999999,0.0084,0.010199999,-6.1935997,-1.2342,7.5023,sit
-0.0004363323,0.005375614,0.0002443461,-0.0041,0.0083,0.019299999,-6.1926,-1.2342,7.5031996,sit
0.00033161257,0.004956735,-0.00013962634,-0.0050999997,-0.0013,0.028199999,-6.1917,-1.2342,7.5038996,sit
-0.0011519173,0.0035953782,-0.00034906584,0.013499999,-0.0013,0.0275,-6.191,-1.2342,7.5045,sit
-0.00026179937,0.0029496064,0.00015707963,0.022599999,0.0083,0.0367,-6.1907997,-1.2342,7.5046997,sit
-0.0009948377,0.0016755161,0.00017453292,0.0224,0.0084,0.046299998,-6.1906,-1.2343999,7.5048,sit
-6.981317e-05,0.001850049,0.00075049157,0.0222,-0.011,0.0462,-6.1907997,-1.2346,7.5046,sit
0.00036651915,-0.00022689281,0.0002443461,0.0028,-0.0009999999,0.0268,-6.1914,-1.2347,7.5039997,sit
-0.00031415926,0.00031415926,8.726646e-05,0.0132,0.0089,0.0274,-6.1923,-1.2347,7.5034,sit
-0.00019198621,0.0006806784,0.00045378561,0.0042999997,0.0089,0.018199999,-6.193,-1.2347,7.5028,sit
-0.0006457718,-0.0016231562,0.0009948377,-0.0145,0.0088,0.0287,-6.1935,-1.2348,7.5023,sit
-0.0002443461,-0.0004886922,0.0015358897,-0.023799999,0.0188,0.019299999,-6.194,-1.2348,7.5018997,sit
0.0007853982,0.00026179937,-0.00033161257,-0.033099998,0.0089,0.0197,-6.1942997,-1.2349,7.5016,sit
0.00066322513,0.0002443461,-0.0008726646,-0.023,0.009,0.02,-6.1945996,-1.2347,7.5014,sit
0.0012042772,-0.00027925268,-0.0011868239,-0.0128999995,0.0089,0.0104,-6.1945996,-1.2346,7.5014997,sit
5.235988e-05,-0.0012217305,-0.0017802358,-0.0128999995,0.0088,0.0299,-6.1945996,-1.2346,7.5014,sit
-8.726646e-05,0.00057595863,-0.0031764992,-0.0030999999,-0.0009,0.00059999997,-6.1945996,-1.2344999,7.5014,sit
-0.00045378561,-0.00027925268,-0.0020769418,0.0066,0.0087,0.03,-6.1942997,-1.2343999,7.5017,sit
-0.00076794485,-0.0011519173,-0.0006457718,0.0063,0.008599999,0.0297,-6.1942997,-1.2342,7.5017,sit
-0.0010995574,-0.00026179937,-0.0006457718,-0.0132,0.0084,0.0101,-6.1942,-1.2341,7.5017996,sit
-0.00020943952,0.00082030473,0.0007853982,0.0061999997,0.0082,0.0296,-6.1945996,-1.234,7.5014997,sit
-0.00090757123,0.0,0.00015707963,-0.022699999,-0.0015,0.0103,-6.1945,-1.2336,7.5017,sit
-0.0009250245,0.0014660766,0.00017453292,-0.012999999,0.0077,0.0199,-6.1938,-1.2334,7.5023,sit
3.4906585e-05,0.0016580628,-0.00095993106,-0.0039,0.0075999997,0.029099999,-6.1944,-1.2332,7.5017996,sit
0.00019198621,0.0019547688,-0.0002443461,-0.0131,0.0072999997,0.0002,-6.1945,-1.2329999,7.5017996,sit
0.00012217305,0.0016231562,-0.0005410521,-0.012999999,0.0072,0.01,-6.194,-1.2332,7.5021,sit
0.0009948377,0.0015707964,-0.001012291,-0.0037,-0.0023,0.0195,-6.1933,-1.2329999,7.5028,sit
0.0016057029,0.0012217305,-0.0006806784,0.0053,0.0072,0.0188,-6.1924,-1.2325,7.5035996,sit
0.0004363323,0.00066322513,-0.00061086525,0.0142,0.0067,0.0278,-6.191,-1.2327,7.5046997,sit
0.0006981317,0.0005061455,0.0022165682,0.022599999,-0.0029,0.0365,-6.1907,-1.2325,7.5049996,sit
0.0007853982,-0.00033161257,-0.00033161257,0.0026999998,0.0066,0.0264,-6.1900997,-1.2322,7.5056,sit
0.00052359875,-0.00031415926,-0.00041887903,0.011899999,0.0064,0.025799999,-6.1902,-1.2322999,7.5053997,sit
-5.235988e-05,-0.001972222,-0.0009948377,-0.0075,-0.0033,0.0162,-6.1907,-1.232,7.5051,sit
0.000715585,-0.0008901179,-0.00095993106,-0.0168,0.0061999997,0.0067,-6.1907997,-1.2322999,7.5049996,sit
0.0005061455,-0.0008726646,-0.0009773844,-0.0069,-0.012999999,0.0166,-6.191,-1.2319,7.5048,sit
-0.00061086525,-0.0013962634,-0.0009948377,-0.0165,0.0061,0.0168,-6.1914997,-1.2328,7.5042996,sit
0.00052359875,0.0009773844,-0.0006981317,-0.015999999,-0.0223,-0.0022,-6.1916,-1.2322,7.5042996,sit
0.0002443461,0.0012217305,-0.00020943952,-0.015999999,0.0064,0.027099999,-6.1910996,-1.2318,7.5048,sit
-0.00040142573,0.0009773844,-0.00038397242,0.0030999999,0.006,0.0168,-6.1907997,-1.2315999,7.5051,sit
8.726646e-05,0.00055850536,-0.0006981317,-0.0069,0.0058,0.0264,-6.1903996,-1.2314999,7.5053997,sit
0.00027925268,0.0009773844,-0.0005061455,-0.0072999997,0.0056,0.0162,-6.1899,-1.2315999,7.5058,sit
0.00055850536,0.0006283185,-0.0011519173,0.0018999999,-0.0039,0.0158,-6.1893,-1.2315999,7.5063,sit
0.00015707963,0.00027925268,-0.0004712389,0.0013,-0.0039,0.035,-6.1889,-1.2319,7.5066,sit
0.00012217305,0.00041887903,0.00031415926,-0.0088,-0.0036,0.024799999,-6.1884,-1.232,7.507,sit
0.00057595863,-0.00080285146,0.00015707963,0.010199999,-0.0036,0.0244,-6.1888,-1.232,7.5066,sit
0.0006457718,-0.00038397242,-0.00012217305,-0.0187,-0.0034999999,0.0052,-6.1888,-1.2321,7.5066,sit
5.235988e-05,-0.00040142573,0.00012217305,-0.0089,-0.0033999998,0.024799999,-6.1888,-1.232,7.5066,sit
0.0,-0.0008726646,-0.00059341197,-0.0089,0.0061,0.015,-6.1891,-1.232,7.5063996,sit
-8.726646e-05,0.00019198621,-0.00061086525,-0.0184,-0.0034999999,0.015199999,-6.1892,-1.2318,7.5063,sit
0.000715585,0.0009250245,0.0,-0.018299999,0.006,0.015299999,-6.1893,-1.2319,7.5062,sit
-0.00022689281,-8.726646e-05,-0.0010297443,-0.018199999,-0.0036,0.0154,-6.1893,-1.2315999,7.5063,sit
-0.00012217305,0.0006806784,-0.0010821042,-0.0084,0.0058,0.015299999,-6.1893,-1.2313,7.5063,sit
-0.000715585,0.0,0.00026179937,-0.018199999,0.0055,0.015299999,-6.1891,-1.2313,7.5065,sit
0.00040142573,0.0013089969,0.0009424778,-0.008599999,-0.0042999997,0.024899999,-6.1888,-1.2313,7.5067997,sit
0.001012291,0.0012915436,-0.0006806784,0.0008,-0.0042,0.0148,-6.1885,-1.2312,7.507,sit
0.00080285146,0.0018849556,-0.00019198621,-0.0092,0.0053999997,0.0244,-6.1882,-1.2314,7.5072,sit
-0.00075049157,0.00022689281,-0.00057595863,0.0002,-0.0042,0.0242,-6.1882,-1.2313,7.5072,sit
0.00045378561,0.00075049157,-0.0004363323,-0.0095,-0.0042999997,0.0242,-6.1879,-1.2313,7.5074997,sit
0.0010646508,-0.00022689281,-0.0009773844,0.0,0.0053999997,0.023899999,-6.1877,-1.2314999,7.5076,sit
-6.981317e-05,0.0007330383,0.00031415926,-0.0002,-0.0039999997,0.0139999995,-6.1871,-1.2317,7.5081,sit
-0.00017453292,0.0,-0.00038397242,0.0089,-0.0037999998,0.013499999,-6.1874,-1.2314,7.5078998,sit
3.4906585e-05,0.00082030473,-0.0005410521,-0.0201,0.0056,0.0235,-6.1875,-1.2313,7.5077996,sit
-0.000715585,0.0006806784,-0.0002443461,-0.02,-0.0042,0.023599999,-6.1879997,-1.2311,7.5074997,sit
-0.0013613568,0.00090757123,0.0013613568,-0.0195,0.0052,0.014099999,-6.1879,-1.2313,7.5074997,sit
-0.00038397242,0.000715585,0.0026703537,-0.0098,-0.0042999997,0.014099999,-6.1884,-1.232,7.507,sit
-0.00085521134,0.0022340214,0.0013089969,-0.0093,-0.0134,-0.0049,-6.1882997,-1.232,7.5070996,sit
0.0,0.0015184365,0.00020943952,-0.0094,-0.0036,0.0243,-6.1881,-1.2318,7.5073,sit
0.0013089969,0.0034906585,-0.001134464,0.0001,0.0058999998,0.0339,-6.1879997,-1.2317,7.5074,sit
0.0005061455,0.0006806784,-0.0008901179,-0.009699999,0.0058,0.024,-6.1879997,-1.2318,7.5074,sit
-5.235988e-05,-0.0002443461,-0.0017278759,-0.009699999,-0.0037999998,0.024,-6.1868,-1.2321,7.5081997,sit
-0.0011170107,-0.00041887903,-0.0010995574,0.0185,-0.0033999998,0.0134,-6.1864,-1.2322,7.5085998,sit
0.00034906584,-0.0012217305,-0.0014660766,0.018,-0.0033,0.0424,-6.1861997,-1.2321,7.5088,sit
-0.00066322513,-0.00057595863,0.00026179937,0.007999999,-0.0132,0.0324,-6.1864,-1.2319,7.5085998,sit
-0.0011868239,-0.0021991148,-0.00017453292,-0.011299999,0.0061,0.0326,-6.1868997,-1.232,7.5081997,sit
-0.0005410521,-0.001256637,0.00012217305,-0.0206,-0.0036,0.0036,-6.1875,-1.2317,7.5077996,sit
-0.0013089969,-0.0010821042,-0.00029670598,-0.02,0.0058999998,0.0138,-6.1878,-1.2315999,7.5076,sit
0.00090757123,0.0004363323,-0.00052359875,-0.0296,0.0058,0.0139999995,-6.1879997,-1.2317,7.5073,sit
0.00052359875,0.0013962634,-0.0012391837,-0.0391,0.0058999998,0.0045,-6.1881,-1.2321,7.5072,sit
0.00013962634,0.001012291,-0.0010471975,-0.019399999,-0.0034999999,0.0046,-6.1879997,-1.2322,7.5073,sit
0.00031415926,0.002443461,-0.0012740904,-0.0195,-0.0033,0.0143,-6.1878,-1.2322999,7.5074,sit
0.0010297443,0.0017453292,-0.001134464,-0.0099,-0.0033,0.024,-6.187,-1.2321,7.5081,sit
0.00095993106,0.0013264503,-0.00082030473,0.0088,0.0063,0.013499999,-6.1865,-1.2321,7.5084996,sit
0.0010646508,0.0012217305,-0.0006457718,-0.0013,0.0061999997,0.0327,-6.186,-1.2321,7.509,sit
-0.00017453292,-0.0004886922,0.00020943952,0.0078,0.0061999997,0.0224,-6.1858,-1.2318,7.5091,sit
0.00045378561,0.00041887903,-0.0012915436,-0.0021,0.006,0.0223,-6.1856,-1.2317,7.5092998,sit
0.00095993106,-0.0012042772,-0.0016406095,0.0074,0.0058999998,0.0221,-6.1858,-1.2318,7.5091996,sit
0.00033161257,-0.0007853982,-0.0012391837,-0.012,-0.0037,0.012399999,-6.186,-1.232,7.5088997,sit
-0.0004712389,-0.00019198621,-0.0011693706,-0.0117,-0.0036,0.022499999,-6.1865,-1.2319,7.5085998,sit
3.4906585e-05,-0.0005061455,0.0,-0.0407,-0.0036,0.012999999,-6.1868,-1.2321,7.5083,sit
-0.00055850536,0.0006457718,-0.0007330383,-0.030499998,-0.023,0.0133,-6.187,-1.2319,7.5081997,sit
0.0006806784,0.0009424778,-0.001256637,-0.020499999,0.0061,0.0232,-6.1871,-1.2319,7.5081,sit
0.00031415926,0.00031415926,-0.0010471975,-0.04,-0.0036,0.013499999,-6.1872,-1.232,7.5078998,sit
0.0008726646,0.00052359875,-0.00143117,-0.020299999,-0.0034999999,0.0137,-6.1868997,-1.2319,7.5081997,sit
0.0013788101,0.0009773844,-0.0018325957,-0.010799999,0.0061,0.0232,-6.1868,-1.2315999,7.5084,sit
0.0006981317,0.0010297443,-0.0016755161,-0.0109,0.0156,0.0132,-6.1865997,-1.2315999,7.5084996,sit
0.00012217305,0.001012291,-0.0013613568,-0.0013,0.0058,0.0131,-6.1865,-1.2314999,7.5087,sit
0.00085521134,0.0009773844,-0.00095993106,-0.0112,0.0056,0.022699999,-6.1863,-1.2317,7.5088,sit
-0.00019198621,0.00045378561,-0.00090757123,-0.0016,-0.0039,0.0325,-6.1867,-1.2318,7.5084996,sit
0.0004712389,0.00055850536,-0.0007853982,-0.0209,-0.0037999998,0.0033,-6.1863,-1.2315999,7.5088,sit
0.0004886922,0.00019198621,-0.0002443461,0.0081,0.0058,0.022599999,-6.1864,-1.2317,7.5087,sit
0.0004886922,0.0005061455,-0.001012291,-0.0211,-0.0037999998,0.0128999995,-6.1867,-1.232,7.5084,sit
0.0004712389,0.00038397242,0.00012217305,-0.0208,-0.0134,0.0033999998,-6.187,-1.2321,7.5081997,sit
-0.00033161257,0.00012217305,-0.0012391837,-0.0106999995,-0.0033999998,0.0036,-6.1872,-1.2322999,7.508,sit
0.0002443461,-0.00041887903,-0.0013089969,-0.020299999,-0.0033,0.013599999,-6.1872997,-1.232,7.5078998,sit
0.0010646508,0.0010471975,-0.001012291,-0.0202,0.015999999,0.0235,-6.1875,-1.2321,7.5077,sit
0.0007853982,0.0008726646,-0.0011170107,-0.0396,-0.0033999998,0.023699999,-6.1874,-1.2324,7.5077996,sit
-0.0006457718,0.0014137167,-0.00080285146,-0.00049999997,-0.0128999995,0.0138,-6.1874,-1.2324,7.5077996,sit
-0.00013962634,0.0012042772,-0.001012291,-0.0103,-0.0030999999,0.0138,-6.1874,-1.2322999,7.5077996,sit
0.00026179937,0.00052359875,-0.0010297443,-0.0103,0.0064999997,0.023599999,-6.1874,-1.2321,7.5077996,sit
0.00045378561,0.00012217305,-0.0006981317,-0.0201,0.0063,0.0334,-6.1872997,-1.2321,7.5078998,sit
0.0006457718,0.0009250245,-0.00055850536,-0.0104,0.0063,0.0235,-6.187,-1.2322999,7.5081,sit
-0.00036651915,0.00013962634,-0.0015707964,-0.0009,-0.0033,0.033099998,-6.1871,-1.2322999,7.508,sit
0.0002443461,-0.00029670598,-0.001134464,-0.0106,-0.0033,0.013599999,-6.1871,-1.2321,7.508,sit
5.235988e-05,3.4906585e-05,-0.0013089969,-0.0106,0.0063,0.0234,-6.1872997,-1.2322999,7.5077996,sit
-0.00013962634,5.235988e-05,-0.001256637,-0.0104,-0.0032,0.0138,-6.1875,-1.2325,7.5076,sit
6.981317e-05,0.0010297443,-0.0014137167,-0.02,-0.003,0.0139999995,-6.1875997,-1.2326,7.5076,sit
0.00027925268,0.0010471975,0.0002443461,-0.0101,-0.0029,0.0139999995,-6.1872997,-1.2324,7.5077996,sit
-0.00029670598,0.0011693706,-0.00022689281,-0.00059999997,0.0066,0.023599999,-6.1875997,-1.2325,7.5076,sit
-0.00013962634,0.002268928,-0.00019198621,-0.0297,-0.0128,0.014099999,-6.1875,-1.2328,7.5076,sit
0.00085521134,0.0012740904,-0.0009948377,-0.010199999,-0.0028,0.023799999,-6.1877,-1.2327,7.5074997,sit
0.00012217305,0.0008726646,-0.0015184365,-0.0198,0.0067999996,0.0042999997,-6.1875997,-1.2329,7.5074997,sit
0.00080285146,0.0006981317,-0.001256637,-0.0199,-0.012399999,0.023899999,-6.1874,-1.2330999,7.5076,sit
0.00061086525,-0.0009948377,-0.0017453292,-0.00049999997,-0.0023999999,0.0139999995,-6.1875997,-1.2333,7.5074997,sit
-0.00040142573,0.00022689281,-0.003874631,-0.0199,-0.0022,0.023899999,-6.1872,-1.2333,7.5077,sit
-0.00031415926,0.0006457718,-0.0025307273,0.009,-0.0022,0.0139,-6.1872997,-1.2332,7.5077,sit
-0.00061086525,-0.00041887903,-0.0014660766,-0.0104,0.0074,0.023699999,-6.1875997,-1.2333,7.5074997,sit
-0.0010821042,-0.0014486233,0.00083775807,-0.00029999999,-0.0022,0.0042999997,-6.1878,-1.2333,7.5073,sit
3.4906585e-05,-0.00013962634,-0.00036651915,-0.0295,-0.0023,0.0241,-6.1879997,-1.2335,7.5070996,sit
-0.00034906584,-0.00066322513,-0.0006283185,-0.009699999,-0.0019999999,0.0047,-6.1881,-1.2334,7.507,sit
0.0006981317,0.00022689281,-0.00061086525,-0.019399999,0.0075,0.014599999,-6.1877,-1.2333,7.5073,sit
0.0004886922,0.0009424778,-0.00033161257,-0.0002,0.0075,0.0241,-6.1879,-1.2337999,7.5070996,sit
0.00038397242,0.0010297443,0.00012217305,-0.0196,-0.0016999999,0.0047,-6.1878,-1.2346,7.5070996,sit
0.00026179937,0.001012291,0.0005061455,-0.0001,-0.010799999,0.0047,-6.1877,-1.2348,7.5070996,sit
0.0,0.00066322513,-0.00036651915,-0.01,-0.0007,0.0145,-6.1872997,-1.2348,7.5074,sit
0.0009250245,0.0017802358,0.0010471975,-0.00059999997,-0.0007,0.024,-6.1871,-1.2350999,7.5076,sit
0.00052359875,0.0010821042,0.0006283185,-0.0008,-0.0103,0.0139999995,-6.1867,-1.2353,7.5077996,sit
-5.235988e-05,-0.00045378561,-0.000715585,-0.0011999999,-0.0101,0.043199997,-6.1865,-1.2351999,7.508,sit
0.0,-0.0012915436,-0.0004886922,-0.0014,-0.00029999999,0.042999998,-6.1865997,-1.2351999,7.5078998,sit
0.0021118484,-0.0012740904,-0.0006806784,-0.0013,-0.0004,0.0037999998,-6.1868,-1.2351999,7.5077996,sit
-1.7453292e-05,-0.0017976891,-0.00019198621,-0.0207,-0.010199999,0.023599999,-6.1865997,-1.2350999,7.5078998,sit
0.00019198621,0.0004712389,0.0007853982,0.0084,-0.0004,0.0039,-6.1868,-1.2351999,7.5077996,sit
-0.0016580628,-1.7453292e-05,0.00052359875,-0.030499998,-0.010199999,0.023599999,-6.1872,-1.2349,7.5074997,sit
-0.00080285146,0.00059341197,-0.0004712389,-0.0105,-0.00059999997,0.0042999997,-6.1874,-1.2347,7.5074,sit
0.00031415926,0.001256637,-8.726646e-05,-0.0201,-0.0008,0.024,-6.1872997,-1.2346,7.5074,sit
0.0006283185,0.0006981317,-0.00061086525,-0.0202,0.0088,0.024,-6.1871,-1.2347,7.5076,sit
0.0004886922,0.000715585,0.0,-0.020399999,-0.0009,0.023799999,-6.1868997,-1.2343,7.5077996,sit
0.00034906584,0.00019198621,-0.0006283185,-0.0206,0.0084,0.023599999,-6.1863,-1.2341,7.5084,sit
-0.00045378561,0.0006457718,-0.0006981317,0.0081,0.0083,0.0328,-6.1861997,-1.2337999,7.5084996,sit
-0.0006283185,3.4906585e-05,0.00010471976,-0.0016999999,0.007999999,0.0327,-6.1861,-1.234,7.5084996,sit
-1.7453292e-05,-0.00033161257,-0.0002443461,-0.0116,-0.0015,0.0229,-6.1858,-1.2342,7.5087,sit
-0.0006457718,-0.00034906584,0.0015009831,0.0075999997,-0.0013,0.0128999995,-6.186,-1.234,7.5087,sit
0.00045378561,0.00020943952,0.001134464,-0.0117,0.0082,0.022699999,-6.1861,-1.2341,7.5084996,sit
1.7453292e-05,-0.00061086525,0.0,-0.021399999,-0.011299999,0.0131,-6.1863,-1.234,7.5084,sit
-0.0005061455,0.00080285146,-6.981317e-05,-0.031,-0.0016,0.023,-6.1863,-1.234,7.5084,sit
0.00017453292,-1.7453292e-05,-0.00033161257,-0.011399999,-0.0015,0.0132,-6.1861997,-1.234,7.5084,sit
0.00015707963,0.0008726646,-0.00033161257,-0.0016999999,0.0081,0.023,-6.1861,-1.2337999,7.5085998,sit
0.00041887903,0.0004363323,-0.00017453292,-0.0018,0.007999999,0.022799999,-6.186,-1.2336999,7.5085998,sit
1.7453292e-05,0.0012915436,-0.00019198621,-0.021499999,0.0079,0.022799999,-6.1858997,-1.2335,7.5088,sit
0.0007330383,0.0011170107,-0.0004363323,-0.0117999995,0.0075999997,0.0324,-6.1858,-1.2333,7.5088997,sit
-0.0006981317,0.001256637,0.00027925268,-0.0021,-0.0023,0.0323,-6.1856,-1.2332,7.5091,sit
-0.00057595863,0.0011693706,0.0005061455,-0.0121,-0.0023,0.0321,-6.1853,-1.2333,7.5092998,sit
0.00019198621,0.0012391837,-0.00076794485,0.0072,-0.0022,0.0319,-6.1854997,-1.2332,7.5091996,sit
-6.981317e-05,0.00029670598,0.0,-0.0221,0.0072999997,0.012399999,-6.1856,-1.2332,7.5091,sit
0.0,0.001134464,-0.00019198621,-0.0219,-0.0023999999,0.0223,-6.1856,-1.2329999,7.5091,sit
-0.00041887903,0.0009948377,-0.0009773844,-0.0121,0.0071,0.0223,-6.1858,-1.2330999,7.5088997,sit
0.00013962634,0.0010297443,-0.00010471976,-0.0021,-0.0025,0.0029,-6.186,-1.2329999,7.5088,sit
-0.00038397242,0.0015882496,0.0008901179,-0.021499999,-0.0025,0.022599999,-6.1861997,-1.2329,7.5085998,sit
-0.0012042772,0.0005061455,0.00036651915,-0.0213,0.0071,0.022799999,-6.1864,-1.2330999,7.5084,sit
-0.001134464,0.0007853982,0.001134464,-0.011299999,-0.0122,0.0132,-6.1864,-1.2332,7.5084,sit
-0.0006283185,0.0012915436,0.002024582,-0.011299999,-0.0023999999,0.0328,-6.1864,-1.2329999,7.5084,sit
-0.00019198621,0.00083775807,0.00031415926,-0.011299999,0.0072,0.023,-6.1865,-1.2329999,7.5084,sit
0.0009424778,0.0018151425,-0.0009948377,-0.0112,-0.0025,0.0328,-6.1865997,-1.2330999,7.5083,sit
0.00010471976,0.0006806784,-0.0008901179,-0.0209,0.0072,0.0231,-6.1867,-1.2329999,7.5081997,sit
0.00033161257,-0.00036651915,-0.0012391837,-0.011,-0.0025,0.033,-6.1868997,-1.2327,7.5081,sit
-0.0015009831,-0.00038397242,-0.0019896755,-0.010799999,0.0069,0.013499999,-6.1868997,-1.2327,7.5081,sit
-0.0002443461,-0.00095993106,-0.0013613568,-0.010799999,0.0067999996,0.033099998,-6.1871,-1.2326,7.508,sit
0.00026179937,0.0002443461,-0.0006981317,-0.030299999,-0.0029,0.0332,-6.1872997,-1.2322999,7.5077996,sit
-0.00057595863,0.00027925268,0.00057595863,-0.0202,0.0064,0.023599999,-6.1874,-1.2322,7.5077996,sit
-0.0010995574,-6.981317e-05,0.001850049,-0.0201,-0.0033999998,0.0334,-6.1877,-1.2322,7.5074997,sit
-0.00057595863,0.00061086525,-6.981317e-05,-0.0001,-0.0033,-0.0053999997,-6.1878,-1.2322999,7.5074,sit
-0.00020943952,0.0014137167,-6.981317e-05,-0.0295,-0.0033,0.0338,-6.1878,-1.2321,7.5074,sit
0.0,0.0009424778,0.00020943952,-0.0197,0.0063,0.0142,-6.1878,-1.2326,7.5074,sit
-0.00038397242,0.0011693706,-0.00010471976,-0.0099,-0.0029,0.0044,-6.1877,-1.2327,7.5074997,sit
0.0021991148,0.0010646508,0.00026179937,-0.0199,-0.0028,0.023899999,-6.1877,-1.2327,7.5074997,sit
0.0010646508,0.00052359875,-0.00036651915,-0.01,-0.0028,0.014099999,-6.1875,-1.2328,7.5076,sit
0.0010297443,0.0013788101,-8.726646e-05,-0.0004,-0.0126,0.043399997,-6.1872,-1.2326,7.5077996,sit
0.0009948377,0.0018151425,-0.00017453292,-0.00059999997,-0.0029,0.0334,-6.1871,-1.2327,7.5078998,sit
6.981317e-05,0.0005061455,0.0010297443,-0.0008,-0.0029,0.033299997,-6.1871,-1.2328,7.5078998,sit
-3.4906585e-05,-0.000715585,-0.0004363323,-0.0008,-0.012499999,0.0235,-6.187,-1.2327,7.508,sit
0.00085521134,-0.0005061455,-0.0009948377,-0.0009,-0.0028,0.0332,-6.1871,-1.2326,7.5078998,sit
0.00027925268,-0.0014486233,-0.0004886922,-0.020399999,0.0067999996,0.033299997,-6.1872,-1.232,7.5078998,sit
-0.00029670598,-0.0008726646,-0.00036651915,-0.0105,0.0061999997,0.0235,-6.1874,-1.2319,7.5078998,sit
-0.00075049157,-0.0010995574,0.00027925268,-0.0299,-0.0037,0.023599999,-6.1875,-1.2315999,7.5077996,sit
-0.001134464,0.00027925268,-0.00031415926,-0.010199999,-0.0039,0.023599999,-6.1877,-1.2314999,7.5077,sit
0.00029670598,0.0009250245,-0.00061086525,-0.0198,-0.0041,0.0336,-6.1879,-1.2311,7.5074997,sit
0.0009773844,0.00033161257,-0.00017453292,-0.0196,0.0053,0.014099999,-6.1877,-1.2312,7.5077,sit
0.00033161257,0.0007330383,-0.00057595863,-0.01,-0.0044,0.0139,-6.1875997,-1.2311,7.5077,sit
0.00080285146,0.0004363323,-0.00066322513,-0.0199,-0.0044,0.023699999,-6.1872,-1.2313,7.5081,sit
0.0006283185,0.0012042772,-0.0005410521,-0.0007,-0.014099999,0.0233,-6.1868,-1.2313,7.5084,sit
0.0005410521,0.00095993106,0.000715585,-0.0011,-0.0042,0.0328,-6.1864,-1.2314999,7.5087,sit
0.0005410521,0.00010471976,-0.0005410521,-0.0015,-0.0138,0.0325,-6.1861997,-1.2318,7.5088997,sit
0.0002443461,0.0009773844,-0.00027925268,-0.0016999999,-0.013599999,0.0422,-6.1861997,-1.2318,7.5088,sit
-0.00013962634,-0.0013962634,-0.00034906584,-0.0115,-0.0037999998,0.022599999,-6.1861,-1.2315999,7.5088997,sit
-1.7453292e-05,5.235988e-05,0.0006283185,-0.0116,-0.0039999997,0.0323,-6.1861997,-1.2314999,7.5088997,sit
0.00041887903,-0.0015707964,0.00075049157,-0.0115,-0.0039999997,0.022499999,-6.186,-1.2317,7.509,sit
0.001553343,-0.001012291,6.981317e-05,-0.0018999999,-0.0137,0.0224,-6.186,-1.2314,7.5091,sit
0.0017453292,-0.0007853982,0.00017453292,-0.0018999999,0.0056,0.0223,-6.1861,-1.2308999,7.509,sit
-0.0004363323,-0.00090757123,-0.0002443461,-0.0018,0.0050999997,0.0028,-6.1861,-1.2307,7.5091,sit
0.00012217305,-0.00059341197,-0.00036651915,-0.0116,0.0049,0.0223,-6.1861,-1.2307,7.5091,sit
1.7453292e-05,-1.7453292e-05,0.00061086525,-0.0018,-0.0047999998,0.012499999,-6.1858997,-1.2307999,7.5092998,sit
-0.00052359875,-0.00019198621,0.00022689281,-0.011899999,-0.0047,0.0123,-6.1858,-1.2307,7.5092998,sit
-0.00090757123,6.981317e-05,0.0006806784,-0.011899999,-0.0047999998,0.0221,-6.1854997,-1.2307,7.5095997,sit
3.4906585e-05,0.0002443461,-0.0002443461,-0.0122,-0.014699999,0.0218,-6.1851997,-1.2301999,7.5098996,sit
-0.00027925268,0.0013439035,0.00055850536,-0.0026999998,0.0044,0.0313,-6.185,-1.2298,7.5101,sit
-0.00020943952,0.00033161257,-0.00083775807,-0.022499999,0.0039999997,0.0311,-6.1847,-1.2297,7.5104,sit
-0.0004712389,0.00052359875,0.00034906584,-0.0032,0.0039,0.0308,-6.1844,-1.2297,7.5105996,sit
0.0006457718,0.0007330383,-0.0004712389,-0.0034999999,-0.0058,0.0208,-6.1843,-1.2294999,7.5106997,sit
-3.4906585e-05,-0.00055850536,-0.00057595863,-0.0134,0.0037,0.030499998,-6.1843,-1.2293999,7.5108,sit
0.00040142573,0.0006457718,-0.00059341197,-0.0232,0.0036,0.0402,-6.1840997,-1.2293999,7.5109,sit
-0.0005410521,0.0006806784,-0.00012217305,-0.0037999998,-0.0061,0.030299999,-6.184,-1.2293999,7.5109997,sit
-0.00026179937,-0.00055850536,0.00045378561,-0.0137,-0.0061,0.030199999,-6.1840997,-1.2292,7.5109997,sit
-0.0006806784,0.0016231562,-0.00033161257,-0.0037999998,0.0033999998,0.020399999,-6.184,-1.2293,7.5109997,sit
-0.00026179937,0.0006806784,0.001012291,-0.0137,-0.0061999997,0.04,-6.1840997,-1.2292,7.5109997,sit
-0.0023038345,0.0002443461,0.002024582,-0.013599999,0.0033999998,0.020399999,-6.1842,-1.2293999,7.5109,sit
-0.00027925268,0.0021118484,0.00034906584,-0.013499999,-0.015999999,0.0106999995,-6.184,-1.2296,7.5109997,sit
-0.0005061455,0.0014486233,1.7453292e-05,-0.0137,-0.0158,0.020399999,-6.1842,-1.2293999,7.5109,sit
0.00075049157,0.0006981317,-0.00059341197,-0.0233,0.0036,0.020499999,-6.1839,-1.2293999,7.5111,sit
