rotationRate.x,rotationRate.y,rotationRate.z,userAcceleration.x,userAcceleration.y,userAcceleration.z,gravity.x,gravity.y,gravity.z,class
0.2848552,-0.005846853,0.33098423,0.4154,0.2654,-1.2050999,0.5553,-9.7484,0.9109,ups
0.31028464,0.112975165,0.35033995,0.4529,0.6669,-0.91929996,0.5669,-9.7479,0.9095,ups
0.3637615,-0.042655848,0.3491531,0.3107,0.8121,-0.7438,0.5816,-9.745999,0.92029995,ups
0.31873202,-0.026720991,0.310337,0.1681,0.4865,-0.5747,0.5869,-9.7439995,0.9375,ups
-0.26136306,-0.15371114,0.4731762,0.1434,0.1804,-0.4231,0.5822,-9.7418995,0.96239996,ups
-0.9173276,-0.6007249,0.40430552,0.41169998,-0.2436,0.0885,0.559,-9.7394,1.0,ups
-1.5224158,-1.1355112,0.28391272,0.43629998,-0.88299996,0.2032,0.51489997,-9.7375,1.0421,ups
-2.6692717,-0.66699505,0.19305086,0.6936,-2.0421,-0.063,0.4635,-9.7355995,1.0828999,ups
-3.509194,-0.6035174,0.06531022,1.1130999,-4.9277997,-0.49069998,0.4068,-9.733,1.1280999,ups
-3.8139284,-1.1690215,0.19713494,2.862,-6.7165,0.1434,0.34469998,-9.729199,1.1804,ups
-3.5294397,-0.58597684,0.2024931,0.6168,-7.8009,-1.3495,0.2853,-9.723499,1.2415999,ups
-3.0465596,-0.03234095,-0.21376793,-1.1233,-8.9535,-3.5382,0.23089999,-9.7183,1.2924,ups
-3.0778706,-0.2101551,-0.78529346,-0.3443,-7.0106997,-5.3701997,0.1383,-9.729199,1.222,ups
-3.5275023,-0.8393812,-0.93050486,0.99429995,-5.1259,-7.3086996,0.0843,-9.7507,1.0422,ups
-3.6749828,-1.3099917,-0.8518603,2.4166,-3.0765998,-6.5764,0.0545,-9.779799,0.72179997,ups
-3.8598654,-1.9392179,-0.8114385,0.4951,-2.7563999,-6.4266,0.0246,-9.8057995,0.1209,ups
-4.2683425,-2.5772405,-0.7031757,-0.4763,-4.8585,-3.7024999,0.0154,-9.7926,-0.5241,ups
-4.3483305,-2.746834,-0.67730993,1.1185,-6.2833,0.59529996,-0.0398,-9.7211,-1.2916,ups
-4.440711,-2.3404517,-0.7352025,3.9166,-4.3238,2.7185,-0.092,-9.6015,-1.9928,ups
-4.252844,-2.3135562,-0.45500734,3.8302,-3.3885,2.0904,-0.0448,-9.458099,-2.5906,ups
-4.0462666,-2.5114067,-0.10252064,2.2449,-4.2674,1.3382,0.098799996,-9.275499,-3.1818,ups
-3.4257147,-2.369389,0.20624556,0.2519,-3.619,1.8857,0.2285,-8.9923,-3.9059,ups
-2.4319768,-1.8412526,0.31723103,-1.1544,-2.1704,1.4771999,0.27179998,-8.7051,-4.5074,ups
-1.6592147,-1.6352513,0.3058515,-2.5607998,-2.2981,3.721,0.2268,-8.3224,-5.1822,ups
-0.9165073,-1.3000609,0.13020156,1.2148,-1.8267,4.334,0.0403,-7.7935996,-5.9521,ups
-0.14056882,-0.38891172,-0.15514232,1.2995,-1.3561,5.5913,-0.1717,-7.303,-6.5425997,ups
0.40358993,0.1386664,-0.38044688,-0.4481,-0.1371,6.7209,-0.3854,-6.698,-7.1524,ups
0.6199235,0.015323991,-0.5170887,-0.1854,2.0753999,8.043,-0.6971,-6.0078998,-7.7193,ups
0.7823962,0.21636847,-0.77262235,-0.1938,4.5913,9.881,-1.0418,-5.4346,-8.0962,ups
1.3084384,0.3446676,-1.1185815,0.0106999995,4.3464,9.2915,-1.4523,-4.8661,-8.389299,ups
1.9376296,0.77003926,-1.0297792,0.9396,3.2199,8.7415,-1.7928,-4.4456997,-8.5552,ups
1.4175738,2.0641835,-0.61594415,1.0993,3.7879,9.2118,-2.0995998,-4.1507998,-8.6332,ups
2.168432,-0.8338311,-0.50675637,-0.1162,4.7434,7.9431,-2.3353999,-3.9882998,-8.6491995,ups
1.865146,0.51874673,-1.0435324,-1.2267,3.8544,4.2086,-2.3918998,-3.972,-8.6412,ups
2.6603007,1.9206476,-1.3679891,-0.26909998,2.2064,2.1325,-2.3394,-4.0599,-8.614699,ups
2.5735753,1.1721108,-1.370066,2.6578,1.5229,1.4346,-2.2949998,-4.1903,-8.564,ups
2.9203546,1.4785557,-1.2623442,3.3292,2.0635,1.515,-2.1915998,-4.3582,-8.5071,ups
3.028024,1.7933258,-0.8772723,-0.73219997,2.8313,2.7265,-2.0331,-4.6259,-8.4045,ups
2.8941748,1.6394053,-0.37622318,-5.8408,-1.2994,-5.4221,-1.8082999,-4.9865,-8.248199,ups
2.6971445,1.1948,-0.09522516,-4.9068,-7.2114,-11.0796995,-1.3694,-5.2626,-8.1608,ups
2.6226366,0.9201899,0.077667154,9.511,-11.0296,7.4943,-1.4401,-5.5926,-7.9258,ups
2.5506241,0.80080944,0.2720619,2.6583998,-5.4075,1.8561,-1.2168,-5.9484997,-7.7008996,ups
2.4688904,0.69827133,0.44387212,-2.9984999,-3.1388,3.6794,-0.75729996,-6.3833,-7.4059997,ups
2.4744754,0.5947733,0.455688,-2.1362998,-3.3693,4.7743,-0.4427,-6.7412996,-7.1082997,ups
2.5244267,0.74467963,0.48839548,-1.711,-3.599,3.7305999,-0.0639,-7.1587996,-6.7019997,ups
2.3904903,0.8350528,0.3690324,-1.4627999,-3.9854,2.3202999,0.2958,-7.5569,-6.243,ups
2.237163,0.53387874,0.3546858,-1.3431,-4.0348,1.8484999,0.5487,-7.9096,-5.7711997,ups
2.0992296,0.7325845,0.63077945,-1.1982,-3.7301,2.7632,0.7078,-8.2438,-5.2639,ups
2.0075476,1.4424448,0.8015948,-0.47259998,-2.5412998,1.8434999,0.77669996,-8.491099,-4.8443,ups
2.1831625,1.3315815,0.520911,0.4743,-0.4804,2.1631,0.8005,-8.7378,-4.3794,ups
1.7855241,0.38940042,0.25411993,0.7234,0.6989,2.3786,0.777,-8.9560995,-3.9183,ups
1.0186265,0.40730748,0.2692694,0.4217,1.4528999,3.0354998,0.73539996,-9.151199,-3.4473999,ups
0.58744293,0.49240974,0.27193975,0.48659998,2.2347,2.4169,0.69009995,-9.3249,-2.9562,ups
0.3690673,0.285117,0.17571975,-1.1014,2.2096999,1.2193999,0.6601,-9.476399,-2.4354,ups
0.25431192,0.3313682,-0.019163715,-2.7052999,1.9442999,0.6003,0.61649996,-9.5739,-2.0321,ups
0.2700897,0.6727895,-0.08646361,-0.9194,1.4128,-0.5013,0.5173,-9.6602,-1.607,ups
0.29611257,0.89730865,-0.13496631,0.7224,0.5323,-2.1128,0.3856,-9.731,-1.1527,ups
0.43388885,0.34327134,-0.016283922,0.92289996,0.6918,-4.5343,0.3127,-9.7727995,-0.7514,ups
0.5026897,0.07632325,0.15728907,1.1093999,0.86139995,-3.9817998,0.2634,-9.795199,-0.3918,ups
0.54300684,0.54176766,0.22373375,1.8496,0.1039,-4.4445,0.20969999,-9.8026,-0.1841,ups
0.60274947,0.6241821,0.36086428,3.2473998,-0.18769999,-3.9189,0.1555,-9.8052,-0.0625,ups
0.68827057,0.28169614,0.6594378,3.6748,0.1855,-3.1227999,0.12019999,-9.8059,0.014099999,ups
0.08546878,0.47413614,0.68490213,3.1804,0.4696,-1.377,0.124299996,-9.8055,0.072799996,ups
-0.5385039,0.3018896,0.69546133,2.2728999,-0.42339998,-0.6346,0.13939999,-9.8048,0.12459999,ups
-1.3493489,-0.15800466,0.6604151,0.0712,-0.9544,0.9296,0.16399999,-9.8034,0.1882,ups
-2.5669255,-0.1640435,0.38423422,-1.5193,-1.2703999,1.8698,0.16589999,-9.8013,0.2778,ups
-3.5139236,-0.6807133,-0.06262241,-3.4973998,-2.6659,2.6887,0.1337,-9.7983,0.3807,ups
-3.9125047,-0.58009505,-0.042219516,-5.6721,-6.9754,1.6746,0.0823,-9.7939,0.49249998,ups
-3.578466,0.9078854,-0.1346347,-3.7668,-10.8948,0.0815,0.0009999999,-9.7873,0.61469996,ups
-3.2063968,1.0299014,-0.750893,-0.94329995,-11.660399,-2.3399,-0.1353,-9.7768,0.75119996,ups
-3.6135123,-1.4414674,-1.070009,-0.2104,-7.085,-4.7285,-0.2798,-9.7726,0.76659995,ups
-4.0908422,-3.6160953,-1.1374136,1.9036,-3.1987,-7.8949,-0.42279997,-9.7754,0.6576,ups
-5.4275203,-2.820836,-0.5165476,3.8959,-2.2101998,-9.3249,-0.5518,-9.783199,0.3911,ups
-4.7772455,-1.6786053,-0.021938788,3.3925,-5.0417,-10.318299,-0.627,-9.7858,-0.115899995,ups
-3.7097323,-0.25926867,0.09552187,2.2388,-7.4368997,-5.5529,-0.6207,-9.754,-0.8017,ups
-4.309305,0.09786061,-0.08580039,3.6945999,-6.2351,1.3744999,-0.62509996,-9.6614,-1.5609,ups
-4.5892386,-1.7274047,0.014625859,2.3868,-3.1841998,3.1072,-0.5628,-9.5251,-2.2638,ups
-4.1520333,-2.4633577,0.20725785,-0.6149,-2.6259,4.8266997,-0.3461,-9.347899,-2.9438,ups
-3.409937,-2.2533247,0.38823104,-0.1025,-4.3616,5.7853,-0.2505,-9.142099,-3.5396,ups
-2.2955444,-1.8107442,0.59774035,-3.7324,-5.1264997,-5.7553,-0.3275,-8.828199,-4.2572,ups
-1.3961412,-1.4751523,0.4961971,-6.2688,-1.2585,6.1952996,-0.52709997,-8.263599,-5.2539,ups
-0.5878618,-0.71474725,0.22762585,-0.3056,0.8498,8.9262,-0.6946,-7.7830997,-5.9254,ups
-0.0022165682,-0.20291197,-0.12023573,3.3211,0.81,2.0491,-0.74189997,-7.3216,-6.4817,ups
0.38220966,-0.37390187,-0.46437976,1.5576999,0.0286,3.6845999,-0.7143,-6.6775,-7.1463,ups
0.83245224,-0.17631316,-0.74490654,2.5247998,2.3804,8.5381,-0.94589996,-6.0677,-7.6457,ups
1.4515729,0.22668336,-1.0268644,1.0726,4.3826,10.163,-1.357,-5.4122996,-8.0644,ups
2.473341,0.9492497,-1.0951941,0.31559998,5.5878997,9.6173,-1.767,-4.8426,-8.3424,ups
1.8141999,2.6905298,-0.80210096,0.706,5.2488,9.2976,-2.128,-4.4349,-8.4837,ups
2.7865229,-2.5817957,-0.33056536,1.1869999,5.0327,8.8833,-2.4521,-4.1500998,-8.5401,ups
1.7152921,2.2095344,-0.7717497,1.0306,5.0607,5.9611998,-2.5800998,-4.0506,-8.550099,ups
2.6538954,1.0599908,-0.9782745,1.1745,3.9884999,3.7142,-2.6062999,-4.0572,-8.5391,ups
2.6871786,0.5327443,-1.2528671,1.9659,2.8328,1.8191999,-2.6327,-4.1468997,-8.4876995,ups
3.0516558,1.8978536,-1.11818,2.4492,2.6085,1.4369999,-2.5963,-4.3443,-8.3997,ups
3.1486962,2.2162714,-0.6596123,-0.0692,3.2071,8.0672,-2.4805,-4.6095,-8.2927,ups
2.8699844,1.5908153,-0.27230626,-7.1383,1.0467,-15.938,-2.2073,-5.0871,-8.0882,ups
2.698855,1.4335088,-0.111509085,-6.3160996,-10.9911995,-11.3215,-1.6664,-5.4251,-7.9975,ups
2.6739492,1.5093608,-0.034016468,10.3713,-15.0772,13.9436,-1.9964,-5.8304996,-7.6281,ups
2.558129,1.2313298,0.17149605,-2.7184,-4.9723,-2.8702,-1.5278,-6.1482997,-7.4855,ups
2.4285734,0.77494365,0.3595029,-2.3708,0.1038,7.0495996,-1.2771,-6.5271997,-7.2065,ups
2.3576431,0.23535764,0.31374037,-0.31849998,-1.9174999,5.7743998,-1.0346999,-6.9378,-6.8532,ups
2.2837808,0.22965042,0.15221016,-0.64309996,-3.9002,2.1348,-0.5827,-7.4068,-6.4006996,ups
2.285369,0.28023008,0.11671016,-1.3708999,-4.5109997,1.6082,-0.2471,-7.7668,-5.982,ups
2.2318397,0.3827158,0.06394886,-1.2128,-3.9796,2.122,-0.022699999,-8.102099,-5.5249,ups
2.1967587,0.879803,0.24694663,-0.8023,-2.856,1.9531,0.1453,-8.392099,-5.0716,ups
2.0787394,1.2770923,0.33283427,0.1366,-1.5345,1.0034,0.29479998,-8.6545,-4.6024,ups
1.9177154,0.968361,0.11316715,1.5712999,-0.21779999,1.4616,0.3703,-8.8827,-4.1387997,ups
1.5316311,0.47122145,0.029914944,2.3329,0.5747,1.4289,0.3638,-9.0966,-3.6452,ups
0.9072396,0.44132397,0.20362756,1.8518,1.4905,2.1589,0.3252,-9.2476,-3.2475,ups
0.42039746,0.38343138,0.3477743,1.2594,2.2108,1.6757,0.3096,-9.389299,-2.8132,ups
0.2944196,0.5580516,0.35410985,-0.6637,2.6753,0.78389996,0.3008,-9.5105,-2.3725998,ups
0.55808645,0.7163355,0.16219345,-2.1176999,2.2536,-0.4166,0.3035,-9.6086,-1.9368999,ups
0.739688,0.42219514,0.025900686,-0.3039,1.4884,-1.8325,0.2843,-9.6868,-1.5016999,ups
0.6931575,0.18751818,0.099902645,1.0667,0.77459997,-2.1526,0.2473,-9.7477,-1.0443,ups
0.6362598,0.457189,0.11810643,-0.035,0.0898,-2.3908,0.2409,-9.7787,-0.6982,ups
0.74356264,0.5934818,0.12973033,-1.8857,-0.0106999995,-3.099,0.23809999,-9.795899,-0.392,ups
0.69307023,0.3820002,0.2865307,-1.4929999,0.0545,-3.7919,0.1986,-9.8024,-0.2091,ups
0.53190655,0.26256734,0.44827035,0.9687,0.1356,-2.4759,0.1296,-9.804999,-0.1228,ups
-0.023579398,0.51412165,0.4475024,3.549,0.4703,-1.2621,0.059699997,-9.8062,-0.061699998,ups
-0.8707971,0.4985533,0.4150742,3.7972,-0.0982,-1.5408,0.0273,-9.806399,0.0502,ups
-1.7144195,0.0030717794,0.47530553,2.6267,-1.012,-0.9033,0.021,-9.8046,0.1972,ups
-2.7138474,-0.3470587,0.4136605,1.3919,-1.5648999,1.4103999,0.00049999997,-9.8008995,0.3351,ups
-3.6670065,-0.39344957,0.31288517,-1.9025999,-2.5906,1.3399,-0.029199999,-9.7951,0.47419998,ups
-3.9802058,-0.09608038,0.19242255,-4.854,-6.2461,-0.47919998,-0.0591,-9.7876,0.6067,ups
-3.3678222,1.4297912,-0.33494613,-3.5356998,-10.1396,-1.6646999,-0.122099996,-9.777699,0.74289995,ups
-2.9016798,1.0578616,-1.1133281,-1.6962999,-10.7674,-3.1804,-0.21589999,-9.7676,0.84639996,ups
-3.6533058,-1.692917,-1.1772071,-1.4411,-6.6113997,-5.3299,-0.3141,-9.7656,0.8384,ups
-4.534837,-4.067315,-0.90912455,0.14,-3.4139998,-6.9978,-0.4048,-9.7758,0.6627,ups
-5.898724,-3.2282832,-0.2781706,1.5972999,-2.4887,-8.910299,-0.5087,-9.7891,0.2902,ups
-4.865018,-1.891867,0.42144465,2.4849,-4.5105,-9.5877,-0.58239996,-9.787499,-0.1894,ups
-3.653969,0.3691895,0.3652625,4.1589,-6.5555,-5.595,-0.64809996,-9.7431,-0.90669996,ups
-4.401336,0.9683261,0.26328292,4.7513,-6.3912997,1.9056,-0.6913,-9.6228,-1.7585,ups
-4.539898,-1.783901,0.43034583,2.8841,-3.8456998,3.6824,-0.57949996,-9.5011,-2.3585,ups
-4.1576886,-2.5708,0.4055796,-1.8152,-2.8913,4.1145997,-0.3128,-9.3571,-2.9182,ups
-3.2496984,-2.535876,0.8210203,-0.6577,-4.699,5.2314997,-0.1954,-9.0988,-3.6527,ups
-2.0954423,-1.8643607,1.0382614,-6.0408998,-6.3764,-6.5298996,-0.34309998,-8.7747,-4.3652,ups
-1.1842582,-1.3281956,0.91802573,-7.5477,-2.211,7.9663997,-0.6113,-8.2036,-5.3382,ups
-0.49837875,-1.114515,0.39954078,0.2785,0.7962,9.3661995,-0.89629996,-7.6411996,-6.0808997,ups
0.029356439,-0.85173815,-0.110601515,3.3859,0.6683,1.3331,-0.9048,-7.1700997,-6.6287,ups
0.36643186,-0.4623377,-0.4243419,3.0923,-0.7999,3.7285,-0.8074,-6.555,-7.2490997,ups
0.65491736,-0.3352603,-0.7316595,3.9536998,2.3836,8.5428,-1.1294,-5.865,-7.7778997,ups
1.1278143,0.075118974,-1.1024373,0.3592,6.8195,10.618899,-1.5849999,-5.1916,-8.1673,ups
2.082527,0.5393591,-1.3157862,-0.4333,6.644,10.2459,-2.0869,-4.6239,-8.3925,ups
2.5178993,1.9556937,-1.2524308,2.0044,4.4193997,8.8056,-2.4947,-4.2232,-8.4917,ups
1.6105549,1.3521764,-0.77714276,3.2675,3.9836998,7.2528996,-2.7968,-3.9738998,-8.5178995,ups
1.9375074,-2.4168797,-0.6437298,2.2243,4.494,6.2655,-3.0186,-3.8664,-8.4916,ups
2.295719,2.6567402,-1.2815429,1.2135,3.7117,3.4055,-3.1552,-3.8783998,-8.436299,ups
2.267811,-0.24977407,-1.7113128,1.0921,2.388,0.7876,-3.2006,-3.9668,-8.3779,ups
2.8113065,0.702879,-1.6191419,1.7853999,2.0297,1.6468999,-3.1975,-4.1382,-8.2958,ups
3.2020333,2.0417733,-1.2183969,0.79819995,2.6224,5.2029,-3.1028,-4.368,-8.2135,ups
3.0191402,1.3958794,-0.6359631,-2.2031,3.2166,7.7605,-2.8962998,-4.7855997,-8.0547,ups
2.7029216,0.8547052,-0.29443705,-7.9940996,-3.3177998,-26.2591,-2.4596999,-5.2531,-7.9072,ups
2.8849595,1.4751523,-0.29590312,3.8604999,-15.7088995,-2.8934999,-2.164,-5.542,-7.7956996,ups
2.903809,1.5739554,-0.2892534,6.9307,-12.0869,5.0394998,-2.4589,-5.869,-7.4617,ups
2.7185073,1.1348131,-0.16500343,-5.6888,-1.413,-0.41,-1.9111999,-6.2655,-7.2978997,ups
2.5799632,0.8071101,0.013770647,-2.1471,2.2797,6.141,-1.7263999,-6.6534996,-6.9941998,ups
2.3645196,0.3005457,0.10164797,0.88879997,-1.0011,5.2058,-1.4086,-7.0892997,-6.6277,ups
2.183913,-0.06304129,0.20842722,-1.2027999,-3.4494,-0.5367,-0.92509997,-7.5731997,-6.1611,ups
2.1163688,0.02932153,0.3478965,-1.4893999,-4.2908998,2.7373,-0.68759996,-7.9084997,-5.7577,ups
2.107782,0.97263706,0.45704937,-0.9835,-3.9459999,3.2598,-0.5463,-8.2142,-5.329,ups
2.0572371,1.3168858,0.40196678,0.102299996,-2.7842999,0.3938,-0.3475,-8.512899,-4.8557997,ups
1.9866909,0.6973812,0.14948745,1.2908,-1.3168,0.82699996,-0.1532,-8.783999,-4.3574,ups
1.7085726,0.39337975,0.053459436,2.2865999,0.095599994,1.5378,-0.0311,-9.0099,-3.8716998,ups
1.1985002,0.26457447,0.06824237,1.9902999,1.0475,0.57519996,0.0298,-9.2164,-3.3504,ups
0.8337089,0.40137336,0.14081316,0.6961,1.9969,0.71529996,0.0295,-9.3519,-2.9512,ups
0.6045297,0.32103586,0.21226694,-0.5552,2.3042998,0.8691,-0.013499999,-9.472899,-2.5362,ups
0.46041787,0.4414985,0.24164084,-1.4735999,2.2948,0.6669,-0.085599996,-9.5812,-2.0888,ups
0.6058038,0.33236304,0.11869984,-0.81909996,1.3371999,-0.847,-0.1321,-9.653299,-1.7222999,ups
0.69937086,-0.016406095,0.12527974,0.6903,0.65389997,-1.1859,-0.1705,-9.715199,-1.3245,ups
0.7954687,-0.30407125,0.2302962,0.24509999,0.41779998,-2.1806,-0.1863,-9.763599,-0.8986,ups
0.84728754,-0.1386664,0.2517812,-0.1618,0.9704,-3.0117998,-0.1911,-9.7865,-0.5969,ups
0.7854156,0.2965489,0.22104596,-0.2777,0.7855,-2.1687999,-0.20279999,-9.7978,-0.3612,ups
0.8859466,0.39044762,0.3045774,0.17989999,0.2601,-3.0479,-0.2289,-9.8019,-0.198,ups
0.5374043,0.31611404,0.5107357,1.4666,0.2803,-2.1657,-0.27019998,-9.8026,-0.0799,ups
-0.42685518,0.39599776,0.49968776,3.2691,0.3184,-1.5383999,-0.3173,-9.801499,0.008599999,ups
-1.1240618,-0.1841846,0.45713663,3.1675,-0.28149998,-1.079,-0.3432,-9.7996,0.13759999,ups
-2.28776,-0.776881,0.39517745,2.1004,-0.4711,0.22839999,-0.3646,-9.7963,0.2618,ups
-3.563561,-0.7408399,0.3129899,0.2501,-1.5669,0.82449996,-0.40699998,-9.7891,0.4208,ups
-4.386955,-0.82925826,0.28682742,-2.2716,-4.4118,1.0488,-0.4545,-9.778299,0.5888,ups
-4.080353,0.65812874,0.28913125,-3.0874,-8.2294,-0.2401,-0.5017,-9.765699,0.7402,ups
-2.99783,1.1483045,-0.13060299,-2.5309,-12.052199,-3.2823,-0.5679,-9.7478,0.9091,ups
-3.063332,0.27527332,-0.65064126,-1.5521,-9.931,-3.8630998,-0.6739,-9.7312,1.0094,ups
-3.9341815,-1.2969368,-0.7682939,-0.27989998,-5.2030997,-7.009,-0.7791,-9.7323,0.9191,ups
-4.6195025,-3.1889434,-0.70979047,1.5212,-3.3969,-8.9755,-0.87399995,-9.743899,0.6791,ups
-5.1196094,-2.5646565,-0.43631485,2.6722,-3.9715998,-9.799,-0.9364,-9.7576,0.2865,ups
-4.466123,-1.1807327,-0.106639616,2.2236,-6.0705,-9.8094,-0.9978,-9.747499,-0.3992,ups
-3.9943955,-0.6780604,0.1755103,1.2037,-6.1289997,-0.6634,-1.0663999,-9.6694,-1.239,ups
-4.6430645,-0.6616543,0.21177825,1.8671,-5.0713997,3.8655999,-1.1022,-9.511,-2.12,ups
-4.2983446,-1.6367524,0.37189475,1.6276,-3.3449,5.3223,-1.0294,-9.3841,-2.6548998,ups
-3.778952,-2.3632805,0.500159,0.5966,-3.9153998,4.6444,-0.8908,-9.2156,-3.2322998,ups
-3.081344,-2.101743,0.7268773,0.2706,-5.1066,1.5624,-0.8394,-8.9168,-3.9943998,ups
-2.0256815,-1.5965225,0.862245,-2.4566998,-5.319,-2.1343,-0.9755,-8.5671,-4.6714,ups
-1.1521616,-1.3571332,0.6924768,-4.7797,-2.3583999,4.881,-1.163,-8.0562,-5.4694,ups
-0.4309916,-0.65181065,0.3104068,-1.3935,0.047599997,7.3636,-1.2836,-7.5399,-6.1377,ups
0.03424336,-0.037611846,-0.118822016,2.8474,0.4908,3.8674,-1.3959999,-7.022,-6.7015996,ups
0.3858574,-0.06600835,-0.51616365,2.4778,1.0306,5.9214,-1.5166999,-6.3654,-7.3041,ups
0.7736521,0.08908161,-0.8457691,2.8964999,3.1164,9.2591,-1.8079,-5.7054,-7.7685,ups
1.318893,0.44603634,-1.1117922,0.4811,4.9688997,10.904799,-2.2365,-5.0866,-8.0803995,ups
2.0576384,1.0773743,-1.1819719,0.3656,5.1457996,10.0982,-2.6504998,-4.5476,-8.2741995,ups
3.0107453,1.7725564,-1.2046262,1.4225,4.1626997,9.880099,-2.9916,-4.1626997,-8.3601,ups
2.9277375,1.554111,-0.7752578,1.8728,3.8588,9.4855995,-3.2752,-3.9273999,-8.3677,ups
2.2319095,-1.4475936,-0.40840703,2.1536999,4.2374,6.0032997,-3.4089,-3.8353,-8.3569,ups
1.7579131,2.24116,-1.0559417,2.0239,3.8005998,2.9478,-3.4066,-3.8495998,-8.3513,ups
2.6348712,0.7060031,-1.5749676,2.0342999,2.8704998,2.5305,-3.3778,-3.9492,-8.3164,ups
2.4578424,0.3659781,-1.6801761,2.0397,2.3197,1.5617,-3.2949998,-4.134,-8.2597,ups
3.1562707,1.9397415,-1.4499148,0.6066,2.0491,5.145,-3.1269,-4.4223,-8.1751995,ups
3.0303628,2.0129755,-0.821317,-3.2654998,3.4343,6.8033,-2.8439,-4.8269,-8.0487995,ups
2.6001916,0.9627411,-0.22261675,-6.0042996,-1.5416,-17.254,-2.3999,-5.421,-7.8117,ups
2.562824,0.9088104,-0.10051351,-0.30589998,-17.8937,-14.7915,-2.1064,-5.8578997,-7.5773997,ups
2.6541572,1.0719289,-0.08045968,10.9598,-14.7093,10.430699,-2.2711,-6.2082,-7.2436,ups
2.6066144,1.0763445,0.059550636,-2.7027,0.6598,0.92719996,-1.7689999,-6.534,-7.0955997,ups
2.5076368,0.5960474,0.13208652,-1.795,5.0868,3.2756,-1.4900999,-6.9108996,-6.7962,ups
2.4027424,0.32587042,0.095294975,1.1931,-0.0224,7.4754,-1.2028999,-7.2834997,-6.4554996,ups
2.3383572,0.20303415,0.014486233,-1.6886,-4.5511,-0.4445,-0.7434,-7.7071,-6.0179996,ups
2.2541451,0.15474088,-8.726646e-05,-2.8356,-5.3072,0.6372,-0.3809,-8.069,-5.5601,ups
2.2158525,0.43490115,0.13768902,-2.0037,-4.0354,2.3416,-0.2419,-8.3503,-5.1365,ups
2.2879345,0.9979269,0.22275637,-1.0605,-1.8253,1.8244,-0.126,-8.6285,-4.6584997,ups
2.2656991,1.4414849,0.22410028,0.2537,-0.3852,0.99359995,-0.028199999,-8.8427,-4.2395997,ups
2.1174335,1.2257621,0.1010022,1.9957999,0.2563,0.86869997,0.0537,-9.0725,-3.7224998,ups
1.6750623,0.753895,0.104510315,2.4705,0.6712,1.4226999,0.069299996,-9.2324,-3.3056,ups
1.0256777,0.34648275,0.29907963,2.2329,1.2225,1.5896,0.0716,-9.381599,-2.8546,ups
0.5934818,0.21221459,0.4891809,1.058,1.6308999,1.3111,0.0795,-9.5057,-2.4094,ups
0.42687264,0.31730086,0.45170867,-0.891,1.7393,0.84319997,0.086799994,-9.613999,-1.9318,ups
0.31681216,0.4044626,0.24272294,-1.959,1.6721,-0.3788,0.0762,-9.6841,-1.5432,ups
0.3219609,0.50050807,0.028239427,-0.7844,1.3409,-0.99429995,0.0587,-9.7452,-1.0943999,ups
0.41859975,0.25635397,-0.040526547,-0.1056,0.8247,-2.0051,0.037,-9.7879,-0.6034,ups
0.5199161,-0.113236964,-0.037035886,-0.93969995,0.40919998,-3.0972998,0.0277,-9.8039,-0.2271,ups
0.7155152,-0.16477653,-0.01891937,-2.0175,0.43089998,-4.0945,0.0072,-9.8061,0.103199996,ups
0.796865,0.10515609,0.05766568,-0.613,0.7305,-3.2473998,-0.053799998,-9.8017,0.30539998,ups
0.7901105,0.4919385,0.16364206,2.0936,0.44079998,-2.7561,-0.1519,-9.7963,0.42209998,ups
0.70010394,0.27220154,0.3922802,3.5093,-0.1435,-2.0644,-0.2437,-9.7905,0.50519997,ups
-0.23230332,0.62001073,0.41102505,3.8553,-0.56009996,-0.8499,-0.2954,-9.7858,0.5656,ups
-1.0876892,0.34835026,0.52466345,3.1014,-0.5053,-0.26319999,-0.3065,-9.781799,0.626,ups
-1.8052639,-0.52817154,0.65095544,2.8999999,-0.43219998,-0.020399999,-0.3013,-9.7764,0.7068,ups
-2.6249053,-0.71418875,0.63425267,1.0368,-1.0773,0.6318,-0.2915,-9.7688,0.80969995,ups
-3.547399,-0.7459363,0.55777234,-1.8143,-3.4434,0.471,-0.2843,-9.7562,0.95089996,ups
-4.2541704,-0.56309557,0.4680624,-4.5762,-7.9221997,-0.7039,-0.2976,-9.7395,1.1058999,ups
-3.7643435,1.2252561,-0.042970005,-3.0812,-12.4922,-2.3548,-0.3412,-9.7198,1.2564,ups
-2.9405308,1.0541614,-0.5399525,-1.6539999,-10.7092,-2.4881,-0.4249,-9.698299,1.3898,ups
-3.449399,-0.6274982,-0.7434754,-2.3904,-5.1463,-4.1524,-0.5221,-9.7009,1.3377999,ups
-4.240382,-2.7499058,-0.6778684,0.26029998,-2.7326,-5.9751997,-0.63299996,-9.7217,1.1208999,ups
-4.7205048,-3.3909478,-0.50529027,1.8090999,-2.3738,-6.9035997,-0.75,-9.7472,0.77449995,ups
-4.7649584,-1.5979886,-0.003630285,2.2588,-5.2100997,-9.949699,-0.8663,-9.7645,0.2705,ups
-4.0265093,-1.1782718,0.23008676,3.1332998,-7.6966996,-6.8252997,-0.9758,-9.7492,-0.41189998,ups
-4.2070637,-0.72363096,0.3391873,3.929,-6.0701,2.9561,-1.0753,-9.669499,-1.2301999,ups
-4.5274014,-0.8817054,0.25597,1.0072,-3.5916998,4.2967997,-1.0267999,-9.5491,-1.9824,ups
-4.047366,-1.554879,0.31857494,-0.59139997,-1.6509,3.9438,-0.8599,-9.4109,-2.6199,ups
-3.6263928,-1.9250458,0.3861192,0.8649,-2.1347,3.3288999,-0.7669,-9.2409,-3.1917,ups
-2.777709,-1.5012798,0.60055035,0.6225,-2.5144,1.0868,-0.8383,-8.9494,-3.921,ups
-1.821094,-1.1874696,0.74344045,-2.3381999,-1.7104,0.1695,-1.0646,-8.5081,-4.759,ups
-0.96719164,-0.93040013,0.5291315,-3.4178998,-0.1184,6.9094996,-1.2106999,-8.07,-5.4385,ups
-0.12313298,-0.32161182,0.17941985,0.62689996,0.3935,5.5298,-1.3821,-7.6014,-6.0397,ups
0.39482838,0.06887069,-0.1336573,3.2832,-0.06,4.0450997,-1.5375999,-7.0007,-6.6928997,ups
0.64430577,0.076829396,-0.4617792,1.5867,0.67219996,5.3083,-1.6946,-6.3599997,-7.2696,ups
1.0581408,-0.009075712,-0.87523025,1.3399,2.8539999,8.554299,-1.9381,-5.8058,-7.6619,ups
1.6481494,0.23635249,-1.1712031,0.4632,4.486,9.2744,-2.3167,-5.1626997,-8.0093,ups
2.2061136,1.1785685,-1.3225931,0.3238,4.5941997,8.6118,-2.5892,-4.7314997,-8.1901,ups
1.1123856,3.1152208,-0.8965407,1.833,4.2637997,8.3991995,-2.8529,-4.3912997,-8.2913,ups
2.015768,-2.8046567,-0.18746582,1.9842999,4.2097,7.2012,-3.0532,-4.1998997,-8.319099,ups
1.0807952,1.4275746,-0.5571789,1.249,4.1588,4.4553,-3.122,-4.1686,-8.309299,ups
2.435066,1.5379667,-1.025381,1.8126999,3.5242,3.8446999,-3.0974,-4.2499,-8.2773,ups
2.2839727,0.34683183,-1.1657578,2.8246999,3.1158,1.9356999,-3.0503,-4.3711,-8.2315,ups
2.6214845,0.99335414,-1.0239673,2.9731998,3.0964,2.6053,-2.9731998,-4.5968,-8.1362,ups
2.8263512,1.478259,-0.98134625,1.0428,3.0706,4.7811,-2.8079998,-4.9632998,-7.9779997,ups
2.706325,1.3344787,-0.79419464,-7.4747996,-2.1523,-14.440499,-2.518,-5.3399,-7.8303,ups
2.7062378,1.2474217,-0.52215016,-9.8351,-10.3035,-7.421,-1.9327999,-5.5537996,-7.8478,ups
2.5819702,1.2309982,-0.7246607,11.1684,-10.16,11.3138,-2.3817,-5.9031997,-7.4598,ups
2.6816635,0.8479333,0.13362241,0.671,-1.0004,-0.5106,-2.1027,-6.0896997,-7.3935,ups
2.4062157,0.5929232,-0.17104226,-2.3330998,-1.0167999,4.3863997,-1.7856,-6.4459996,-7.1714997,ups
2.4988227,0.5849471,-0.08241445,-0.3405,-3.3855999,3.093,-1.5619,-6.8426,-6.849,ups
2.4335475,0.25563836,0.4082325,0.4696,-4.8262997,3.3253,-1.313,-7.1868,-6.5418,ups
2.2713366,0.13695599,0.11812388,-0.69629997,-3.6388998,1.2041,-0.9805,-7.5699997,-6.1565,ups
2.2161143,-0.056653388,-0.27419123,-1.2329999,-3.1248,1.3054,-0.69879997,-7.9076,-5.7576,ups
2.269661,0.2221106,0.13638003,-0.7001,-1.0515,1.9892999,-0.4766,-8.2157,-5.3332996,ups
2.071985,0.24026202,0.39397317,-1.9958999,-4.8989997,0.9755,-0.23009999,-8.4869995,-4.9079,ups
1.8725114,0.34854224,0.27607617,5.8664,5.0653,-0.2579,-0.1687,-8.7624,-4.4002,ups
1.8821456,0.89477795,0.11259119,-1.4035,-1.4388,0.9361,-0.0968,-8.9463,-4.0154,ups
1.7673378,0.92561793,-0.06389651,-0.089499995,-2.0818,1.4627999,-0.0379,-9.1369,-3.5614998,ups
1.3971361,0.5232323,0.0008726646,2.0575,1.5525,0.83519995,-0.0962,-9.2998,-3.1102998,ups
0.92354095,0.3368311,0.108210415,0.1105,4.4894,2.2998,-0.1105,-9.432,-2.6822999,ups
0.6652497,0.1237962,0.2171015,-1.1642,0.68729997,1.1801,-0.061499998,-9.5427,-2.2588,ups
0.48391,0.038292523,0.25841343,0.6199,0.14119999,-0.1545,-0.0806,-9.6438,-1.7773,ups
0.2870194,0.1998402,0.11351621,-0.2497,-0.37809998,-0.184,-0.1425,-9.703,-1.4144,ups
0.25218263,0.012531464,-0.1791755,0.43289998,2.1778,-0.6673,-0.18779999,-9.7485,-1.0487,ups
0.32175145,-0.070092425,-0.24029693,0.6563,2.4382,-1.9724,-0.1954,-9.7834,-0.6459,ups
0.32477087,-0.09260717,-0.07642797,0.5193,0.92429996,-2.6554,-0.1761,-9.7993,-0.3356,ups
0.21729349,-0.15631169,0.05073672,0.19399999,0.007999999,-2.6545,-0.1743,-9.8049,-0.061899997,ups
0.45324454,-0.43470916,0.083025314,0.5783,0.5661,-2.669,-0.19579999,-9.8039,0.1192,ups
0.63353705,-0.21821852,0.030857421,1.6847,0.4053,-1.8519,-0.24309999,-9.8,0.2633,ups
0.63390356,0.010471975,-0.03361504,2.1225,-0.6773,-1.0653,-0.2886,-9.7961,0.34939998,ups
0.52387804,0.13133602,0.06496116,1.3024,-1.5627999,-1.1408,-0.312,-9.7932,0.4053,ups
0.33560935,0.16849409,0.2676288,0.95309997,-0.21059999,-1.2203,-0.2765,-9.7921,0.4554,ups
0.09297369,0.517525,0.27628562,1.248,-0.389,-0.6272,-0.22809999,-9.790199,0.5193,ups
-0.29218557,0.93237233,0.37517598,0.4174,-0.912,0.377,-0.21149999,-9.7869,0.584,ups
-0.28560567,0.2578724,0.67943925,-0.4576,-0.4148,0.93119997,-0.2189,-9.783999,0.6279,ups
-0.39592794,-0.21553071,0.85737556,-0.92819995,-1.3726,0.25149998,-0.2288,-9.7775,0.71919996,ups
-0.5318891,-0.4566305,0.556027,-1.5143,-3.9617999,-0.3249,-0.2312,-9.7674,0.8447,ups
-0.74975854,-1.1098025,0.3005806,-2.7073,-7.4937997,-0.78249997,-0.22479999,-9.756,0.96879995,ups
-0.93781775,-1.8650763,0.25583035,0.24,-6.6418,-1.0116999,-0.24,-9.745,1.0705999,ups
-1.2298113,-1.1194541,0.20268509,0.50729996,-7.3773,1.3589,-0.3013,-9.7352,1.1417,ups
-1.3109866,0.77311105,0.19818214,-2.1009,-4.2328997,-0.2039,-0.36049998,-9.7317,1.1551,ups
-1.5679688,0.4653746,-0.08604473,-2.5067,-2.1896,-1.8162999,-0.45479998,-9.7351,1.0906,ups
