rotationRate.x,rotationRate.y,rotationRate.z,userAcceleration.x,userAcceleration.y,userAcceleration.z,gravity.x,gravity.y,gravity.z,class
-1.284702,-0.8071101,-0.10754719,0.0699,-4.9174,-2.1582,-0.0994,-9.6846,-1.5388,dws
-1.1859686,-0.82220715,-0.1267109,-0.5279,-5.2423997,-1.1439999,-0.011399999,-9.644,-1.7781999,dws
-1.1230147,-0.74605846,-0.18495254,-1.1259999,-2.5267,-0.092199996,0.057,-9.5844,-2.0749,dws
-1.0012605,-0.68575734,-0.12859586,-1.6662999,-2.063,2.0414999,0.1365,-9.5185995,-2.3553,dws
-0.8503069,-0.74134606,-0.018378317,0.035,0.35119998,-0.5764,0.19049999,-9.4615,-2.5714,dws
-0.55279815,-0.5706179,-0.008412487,-0.8732,-0.0808,0.6803,0.2162,-9.4021,-2.7789,dws
-0.3140022,-0.40077996,-0.033265974,-0.89699996,-0.0179,0.5502,0.1909,-9.318,-3.0509,dws
-0.06667158,-0.29108602,0.0040317103,-0.90629995,-0.3854,0.648,0.161,-9.234799,-3.2958,dws
0.21013764,-0.14910348,0.07838274,-0.4034,0.2386,1.145,0.12879999,-9.1529,-3.5182,dws
0.51670474,0.012566371,0.1990199,-0.98029995,0.2647,1.3907,0.107499994,-9.071,-3.7247,dws
0.77658427,0.17407914,0.31339133,-0.655,1.1595,1.7184999,0.0764,-8.995,-3.9053998,dws
0.9242391,0.41695917,0.32063442,-0.4301,1.4167,1.8197,0.018199999,-8.928599,-4.0555997,dws
0.9553758,0.55457836,0.25848326,0.0,1.8539,2.1296,-0.029399998,-8.8853,-4.1498,dws
0.9560739,0.3944444,0.1478992,0.059,2.4873,2.4248,-0.059,-8.8616,-4.1998,dws
0.8954761,-0.0049218284,0.035342917,-0.0903,3.0335999,2.4598,-0.0861,-8.8587,-4.2054,dws
0.8170759,-0.027733281,-0.078016214,-0.2972,3.3284,2.4456,-0.114599995,-8.8789,-4.1618,dws
0.6782873,0.35768777,-0.2443461,-0.1822,3.4612,1.936,-0.1511,-8.9236,-4.064,dws
0.5165651,0.532308,-0.38224456,0.3715,3.3184998,1.4294,-0.195,-8.9868,-3.9203,dws
0.48164105,0.5133013,-0.3673569,0.673,2.684,0.7596,-0.2219,-9.0583,-3.7505999,dws
0.5196194,0.5318716,-0.20469221,1.1793,2.0286999,0.3099,-0.22809999,-9.128699,-3.5755,dws
0.6257878,0.33433527,0.016510814,1.1386,1.4387,-0.6311,-0.22649999,-9.1958,-3.3992999,dws
0.86458373,0.06543239,0.14021975,1.6136,1.3614,-0.44509998,-0.23079999,-9.2557,-3.2322998,dws
1.0818074,0.007749262,0.17507398,1.194,1.4677,-0.5542,-0.21339999,-9.3131,-3.0644,dws
1.0075088,0.044889867,0.28930578,-0.0761,1.7406,-0.95089996,-0.1494,-9.3505,-2.952,dws
0.6048962,-0.38100538,0.16667895,-1.2889999,2.1241,0.0231,-0.0446,-9.381,-2.8573,dws
0.8197637,0.9303303,-0.2738247,-1.5934,2.7393,0.7769,0.0537,-9.4078,-2.7677,dws
0.43886304,0.3027099,-0.84746206,-1.3463,3.3748999,0.7183,0.1204,-9.4354,-2.6699,dws
0.025324726,-0.23310618,-0.61638045,-1.3880999,2.7893999,0.1006,0.1328,-9.4677,-2.5523,dws
-0.700069,-2.1619394,-0.19097392,-0.8815,1.7629,-0.8063,0.1068,-9.5102,-2.3904998,dws
-1.2171228,0.5781054,-0.15074408,-1.4429,-2.6792,-1.0001,0.07,-9.5594,-2.1869,dws
-0.593761,0.60484385,0.016510814,0.4181,-7.56,0.2787,0.0133,-9.6015,-1.9949,dws
-0.023631757,-0.091176,0.376101,1.5942,-8.986899,6.4332,-0.0349,-9.625999,-1.8730999,dws
0.8227482,0.047193702,0.041800637,-0.6669,-2.7489998,-0.5555,0.049,-9.6563,-1.7098,dws
0.93277377,0.76895714,-0.022287855,-2.1392,0.8351,3.2265,0.2367,-9.670899,-1.6084,dws
1.2431108,0.5778087,-0.07691666,-1.3533,-13.005199,-20.2974,0.33339998,-9.6677,-1.6106,dws
1.1583924,0.28351128,0.030770155,6.9104,-12.8139,9.4853,0.2974,-9.6432,-1.7576,dws
0.80560905,0.36927676,0.19380136,-2.612,-0.1401,6.8763,0.3466,-9.597799,-1.9828,dws
0.5577549,0.41142645,0.325085,-3.454,3.9469,8.663199,0.3649,-9.5759,-2.083,dws
0.26007152,0.27372,0.46972045,2.5173,0.116299994,2.9794998,0.2873,-9.5796995,-2.0772998,dws
0.0022165682,0.26218337,0.49179888,2.9061,-3.9276,3.1325998,0.281,-9.6153,-1.9067999,dws
-0.19563395,0.33292156,0.2846283,1.0006,-2.3028998,1.6508,0.3134,-9.651299,-1.7096,dws
-0.54508376,0.20996311,0.09740683,-0.7091,0.4445,-0.2139,0.3463,-9.6922,-1.4531,dws
-0.731642,0.17078047,0.08988445,-0.7198,1.193,-1.2265999,0.34719998,-9.7248,-1.2152,dws
-0.637307,0.10185742,0.2077989,-1.3723999,1.1958,-2.8525,0.31329998,-9.7472,-1.0308,dws
-0.7634594,0.10925761,0.36280158,-1.0361999,1.4238,-3.8811,0.26139998,-9.7595,-0.9241,dws
-0.980334,-0.03478441,0.4392121,1.3465999,1.8133999,-3.1239,0.1733,-9.7666,-0.8673,dws
-0.99904394,-0.038187806,0.38634607,2.9285,2.6190999,-3.6669,0.081999995,-9.7681,-0.8637,dws
-0.82931066,-0.254661,0.35878733,2.0258,2.7826,-5.3448997,0.0335,-9.764999,-0.9019,dws
-0.742114,-0.42989203,0.3957185,1.0388,2.7524998,-2.7459,0.0202,-9.754399,-1.0099,dws
-0.7358134,-0.020455258,0.32133257,0.6389,3.0109,-3.1492,0.0082,-9.7382,-1.1559,dws
-1.0323273,-0.252968,0.23390903,1.7922,3.0535998,-1.452,-0.026999999,-9.722099,-1.2839,dws
-1.5598706,-0.57553977,0.16072737,2.0228999,3.0613,0.2007,-0.091,-9.700399,-1.4362999,dws
-2.2795746,-0.75105006,0.06424557,2.0839999,3.5558999,2.2463,-0.1815,-9.6654,-1.6480999,dws
-3.126391,-1.179092,-0.13980088,1.1769999,3.6406,2.3237998,-0.2454,-9.6324,-1.8235999,dws
-3.4618082,-0.9147794,-0.3354872,1.2314,2.7437,0.67939997,-0.31939998,-9.598599,-1.9836999,dws
-3.4062893,-0.7679972,-0.4264363,3.447,1.1705999,0.9084,-0.4069,-9.5651,-2.1245,dws
-2.9675658,-0.32332224,-0.13426818,3.5216,-0.3947,-3.4199998,-0.4619,-9.5296,-2.2677999,dws
-2.6631107,-0.99682736,0.19842649,4.0162997,-1.4913,-4.3008,-0.5154,-9.4724,-2.4852998,dws
-2.3809955,-1.2361643,-0.008080875,2.6490998,-3.6172998,-7.0453997,-0.5602,-9.396,-2.7512999,dws
-1.618374,-0.73162454,-1.0186963,-0.2552,-9.9821,-6.2195,-0.6077,-9.2584,-3.1752,dws
-1.1172725,-0.4750786,-0.8544434,-2.0506,-12.9932995,-3.9297998,-0.6559,-9.0421,-3.7389,dws
-0.68870693,-0.41859975,-0.3806214,-4.4838,-10.799,1.5425,-0.66459996,-8.7652,-4.3472,dws
-0.17177531,-0.59435445,-0.066566855,-4.0388,-6.0105,3.4643,-0.65849996,-8.4543,-4.9255,dws
0.434011,-0.6753726,-0.0017627826,-0.88189995,-3.9354,1.1967,-0.66749996,-8.1168995,-5.4625998,dws
1.1085284,-0.43111378,0.012391837,1.2152,-5.3557,-0.14019999,-0.7935,-7.8438997,-5.832,dws
1.9128809,0.35486034,0.047525316,-1.8965,-6.444,2.5865,-0.9375,-7.5597997,-6.1756997,dws
2.869007,1.4659021,0.18256144,-4.008,-2.4192998,4.7634997,-0.8756,-7.3774,-6.4012,dws
3.6204412,1.6481318,0.22163936,-2.9343998,2.5726,5.9744997,-0.81159997,-7.2503,-6.5530996,dws
3.872327,0.882805,0.12315043,-1.4041,4.6698,7.3373,-0.8121,-7.1607,-6.6507998,dws
3.600335,0.3914948,0.12011356,0.5513,5.5662,7.8462996,-0.8749,-7.1450996,-6.6596,dws
3.2579713,-0.20978858,0.059725165,0.7582,6.5692,8.1398,-0.96419996,-7.2065997,-6.5804996,dws
3.2646732,-0.9191602,-0.41545817,-1.2129999,7.9035997,9.5342,-1.0228,-7.3543997,-6.4059,dws
2.9141414,-1.1395603,-0.56409043,-1.9252,8.8523,9.6426,-0.9873,-7.5971,-6.1219997,dws
1.7699383,-0.73076934,-0.5778611,0.83419997,7.8483,6.4825997,-0.844,-7.9364996,-5.6981,dws
0.67394143,0.243072,-0.54969144,4.7816997,5.4452996,3.0016,-0.7022,-8.3284,-5.1296,dws
0.5354845,1.0035294,-0.5321858,4.2606,2.1166,1.9879999,-0.6322,-8.7361,-4.4103,dws
0.58512163,1.4364583,-0.52773523,2.4550998,-1.2728,0.63729995,-0.6213,-9.004499,-3.8342998,dws
-0.45683992,1.1766312,-0.038624138,-0.5306,-4.8361998,-0.6322,-0.6461,-9.2362995,-3.2315,dws
0.23134339,-1.1138517,0.37526324,-2.9868999,-7.5218997,-5.3476996,-0.62189996,-9.4337,-2.6053998,dws
0.9740682,-0.6764896,0.2679953,-2.2663999,-4.6138,-9.193399,-0.5676,-9.5763,-2.0351,dws
-0.44947463,-0.00027925268,-0.35047957,-1.9672999,-0.3445,-6.904,-0.4842,-9.6483,-1.6865,dws
-0.11861257,0.94816756,-0.83238244,-1.7176,2.9573,-3.2954998,-0.37109998,-9.6748,-1.5587,dws
-0.7021285,-2.7903452,-0.7558497,-1.6436,2.8685,-5.2054,-0.2392,-9.6939,-1.4629999,dws
-0.46247736,1.9983845,-0.4515516,-5.0199,-4.2626,-2.9775999,-0.099,-9.7118,-1.3568,dws
0.072082095,0.18458602,0.39351937,-5.3501,-5.2068996,11.665,-0.063099995,-9.6991,-1.4463999,dws
0.8993158,0.011117747,0.57529545,-0.1513,-3.5437,0.45619997,-0.1722,-9.705,-1.3975999,dws
1.3364509,0.61906826,-0.16076228,8.922299,-2.7247,7.3408,-0.2435,-9.7296,-1.2018,dws
1.505521,1.1796331,-0.17029178,7.0456,-4.7054,4.3482,-0.17109999,-9.720099,-1.2885,dws
1.6825846,0.8894896,-0.121038586,-1.9770999,-21.4473,-27.0175,0.0058999998,-9.7182,-1.3138,dws
1.0750879,0.5883505,0.16182692,-0.546,-6.0411,15.8074,0.0753,-9.6984,-1.4504,dws
0.5625371,0.77745694,0.3694862,-6.7419996,2.5054,5.6498,0.2206,-9.6838,-1.531,dws
-0.11749557,0.6110223,0.43388885,2.4989,4.3729997,6.5525,0.1488,-9.6882,-1.5119,dws
-0.926892,0.2210634,0.41250858,4.1109,-1.2286,1.4798,0.0372,-9.7155,-1.3327,dws
-1.2881228,0.33444,0.24270548,-0.1856,-1.6738,3.6095998,0.0875,-9.750899,-1.0403,dws
-1.4604217,0.42088616,0.19947368,-2.9305,1.1457,1.8561,0.1356,-9.7755995,-0.7676,dws
-1.3501344,0.24013986,0.33625513,-2.4531999,1.9110999,-2.8446,0.1683,-9.7957,-0.43069997,dws
-0.81595886,0.4481831,0.38666025,0.086799994,1.1636,-5.1493998,0.1387,-9.8033,-0.2147,dws
-0.6166423,0.28454104,0.4464552,0.53099996,1.2839,-8.6068,0.067099996,-9.8057995,-0.101399995,dws
-0.68141145,0.60559434,0.45710173,1.8417,2.0486999,-5.7304,-0.0177,-9.8057995,-0.1241,dws
-1.0012605,0.31199506,0.48773226,3.2851999,3.6722,-1.9587,-0.098,-9.8013,-0.3066,dws
-1.4976321,0.37508872,0.46979028,0.95669997,5.3275,-1.2242,-0.1428,-9.789499,-0.56049997,dws
-2.3461065,0.20317377,0.4490383,-0.80429995,6.7184,0.37759998,-0.1762,-9.7682,-0.8483,dws
-3.2990563,-1.0725397,0.42893213,-0.40359998,5.6379,1.6790999,-0.2436,-9.7371,-1.1396999,dws
-3.944252,-1.1597887,0.2314132,1.073,2.6836,0.6443,-0.3081,-9.715,-1.3014,dws
-3.8375776,-1.2730258,-0.003926991,2.9873,0.40039998,0.5384,-0.3787,-9.6971,-1.4111999,dws
-3.4975002,-0.95130914,-0.08463102,2.2038,-0.5453,-2.246,-0.4484,-9.6730995,-1.5489999,dws
-2.8217785,-1.0010511,0.06571165,3.7668,-0.12239999,-4.0094,-0.5306,-9.635099,-1.747,dws
-2.7091174,-1.8010576,0.13763666,3.2006998,-2.202,-6.5491,-0.61179996,-9.5659,-2.0708,dws
-2.2048047,-1.226757,-0.032567844,1.2171,-8.050799,-10.1025,-0.6777,-9.463799,-2.4793,dws
-1.5666599,-0.9148667,-0.49743629,-0.0479,-14.655499,-6.9068,-0.815,-9.2726,-3.086,dws
-0.85364056,-0.36566392,-0.36135298,-1.9386,-13.8335,0.5438,-0.93469995,-8.9963,-3.7898,dws
-0.36086428,-0.38468802,-0.1007055,-3.4429,-8.781,5.0871997,-1.0485,-8.6454,-4.5085998,dws
0.009616764,-0.7619758,0.04680973,-1.5906999,-4.0881,3.3191998,-1.1158999,-8.3467,-5.0256,dws
0.5992937,-0.5960125,-0.076270886,0.7617,-2.8769999,1.2419,-1.2422999,-8.0181,-5.5077996,dws
1.3153673,-0.120898955,-0.102712624,-1.4089,-3.7647,2.8372998,-1.4447,-7.7384,-5.8479,dws
2.3256862,0.83060217,-0.05503023,-4.8954,-3.2424998,3.2519999,-1.5867,-7.476,-6.1449,dws
3.3600554,1.9375772,-0.0310145,-2.5844998,1.072,6.4532,-1.6322999,-7.2795997,-6.3648996,dws
4.0373654,2.0986712,-0.039531708,0.22559999,4.428,7.1203,-1.6279999,-7.1934,-6.4631996,dws
4.0290227,0.891584,-0.15837118,1.5953,5.1025,7.961,-1.6638999,-7.1520996,-6.4997997,dws
3.7452672,-0.2027549,-0.051591933,1.1424,5.3791,8.0484,-1.77,-7.1541,-6.4695,dws
3.203674,-1.003669,-0.26204374,-0.58559996,6.4712,8.2613,-1.8364999,-7.2362,-6.3588,dws
2.4933774,-1.5876213,-0.80478877,-1.0645,7.7307,9.2965,-1.8382,-7.4070997,-6.1584,dws
1.8466805,-1.1396127,-1.0799574,-0.5141,7.5118,8.9873,-1.7217,-7.7177,-5.8001,dws
0.95907587,-1.0177712,-0.9981887,1.5047,6.4898996,5.4344997,-1.5243,-8.059,-5.3757,dws
0.14411184,-0.4202229,-1.0000213,3.9638,3.8625998,0.6155,-1.3061999,-8.4717,-4.7637,dws
-0.53066736,2.4089208,-0.32407275,4.4367,1.0475,-0.4454,-1.2005,-8.834,-4.0850997,dws
-0.5282937,0.26680848,0.2534916,5.4818,-1.1601,-2.7832,-1.2061,-9.1171,-3.4046998,dws
1.7757329,-3.2198706,0.5113291,4.553,-2.9940999,-3.6755,-1.2186999,-9.3229,-2.7869,dws
-0.21074851,-1.6758128,0.9818699,-0.116799995,-4.8257,-4.3326,-1.1384,-9.4821,-2.2279,dws
-0.808262,2.7673767,-0.41001275,-3.0851,-2.6476,-9.4473,-0.99439996,-9.5714,-1.8891,dws
-1.7650689,-0.28747317,-0.86959285,-3.8191998,1.5627999,-7.5306997,-0.83889997,-9.623799,-1.6875,dws
-0.06602581,1.3770124,-1.0422409,-8.5077,-2.0558,1.6933999,-0.6615,-9.6434,-1.6541,dws
0.18980455,0.37032396,0.6244963,-10.8661995,-4.7669997,11.1685,-0.51919997,-9.6291,-1.7835,dws
1.048716,-0.5603554,0.22085397,-11.45,-5.1029,0.8469,-0.5631,-9.606999,-1.8864,dws
1.2005771,0.75961965,-0.52473325,6.8444,-3.2013,4.3324,-0.7937,-9.6649,-1.4591,dws
1.385966,0.57356757,-0.69593257,16.5423,-14.6867,-14.0559,-1.0085,-9.643499,-1.4678999,dws
1.0285225,0.09520771,-0.34670967,2.7345998,-23.4616,1.2322999,-0.8419,-9.625999,-1.6736,dws
0.35740852,-0.02755875,0.11763519,-7.4435997,0.68979996,3.5656,-0.686,-9.5746,-2.0063999,dws
0.020455258,0.6490356,0.21872467,-5.6240997,8.054999,11.6435995,-0.4068,-9.5849,-2.0331,dws
-0.24675465,0.8200255,0.29396582,8.8468,0.51629996,-0.47129998,-0.5013,-9.5873995,-1.9999,dws
-0.54218656,0.6398726,0.40297908,6.5656,-5.4177,1.6316999,-0.5639,-9.6256,-1.7886,dws
-0.50872856,0.4172384,0.2024931,0.9165,-0.53679997,2.2075999,-0.436,-9.6718,-1.5604,dws
-0.52211523,0.14910348,-0.02448697,-3.7168,1.8421999,-2.346,-0.28419998,-9.7169,-1.2922,dws
-0.50485396,0.21856758,0.09555677,-3.7765,1.4569,-3.1272,-0.2147,-9.7435,-1.0896,dws
-0.4991118,0.33457962,0.24664994,-2.0166,2.994,-2.8853998,-0.23879999,-9.7507,-1.0174999,dws
-0.71623075,0.24925047,0.5314528,-1.8979,4.5134,-3.9074,-0.2692,-9.750199,-1.0153999,dws
-0.7963239,0.5425356,0.67024136,0.074999996,5.0754,-1.7372999,-0.31039998,-9.7434,-1.0673,dws
-1.200071,0.7730761,0.81100214,3.3855,4.9625,0.4899,-0.37489998,-9.7286,-1.1762999,dws
-2.1251652,0.5209633,0.843762,2.787,3.9383998,-1.7914,-0.40399998,-9.7146,-1.278,dws
-3.4264653,-0.54042375,0.57180476,0.454,3.866,0.3701,-0.3951,-9.7009,-1.3801,dws
-4.2374673,-0.7934267,0.2775597,-1.0339999,3.4977999,0.42999998,-0.4075,-9.6858,-1.4793999,dws
-4.2662654,-0.9487086,0.13053317,-1.5551,2.3527,-0.93179995,-0.4454,-9.6684,-1.5785999,dws
-3.734638,-0.4336096,0.02815216,0.1184,0.66639996,-2.2519999,-0.5401,-9.6395,-1.7196,dws
-3.1610355,-0.5586799,0.11021754,2.1107,-0.8118,-3.9645998,-0.6495,-9.6027,-1.88,dws
-2.9386282,-1.4066656,0.30318114,3.2150998,-3.343,-7.4975996,-0.7733,-9.5428,-2.1227,dws
-2.0308826,-0.8378802,-0.62514204,3.1569998,-9.8631,-9.013,-0.921,-9.4166,-2.5784,dws
-1.0940596,-0.4499808,-0.584057,0.51379997,-16.1013,-8.6602,-1.0433,-9.229199,-3.1469,dws
-0.6241123,-0.35964254,-0.16439256,-3.5291,-15.7399,0.2529,-1.1486,-8.923699,-3.9009,dws
-0.10131636,-0.5545958,-0.1755103,-3.2691998,-8.6444,4.3111997,-1.2516,-8.556399,-4.625,dws
0.6052976,-0.6710442,-0.443366,-1.3001,-4.4634,2.5133998,-1.2986,-8.187099,-5.2395997,dws
1.470754,-0.3296578,-0.53202873,2.5140998,-2.6947,1.6417999,-1.3765999,-7.8375998,-5.7311997,dws
2.4136508,0.15894714,-0.48073348,-0.59529996,-2.8927999,4.6582,-1.6111,-7.4433,-6.1782,dws
3.382291,0.7562686,-0.48178068,-3.7702,-0.3284,5.5578,-1.6234,-7.2324,-6.4207997,dws
4.07763,0.8498706,-0.40336305,-1.2652,4.4627,7.4638996,-1.5982,-7.1105,-6.5615997,dws
4.1402874,-0.051923543,-0.22820179,1.7599,5.5738,8.7254,-1.6226,-7.035,-6.6366,dws
3.6030576,-0.8177391,-0.09871582,2.2010999,5.5779,9.7785,-1.6715,-7.0292997,-6.6306,dws
3.1189208,-1.1620053,-0.5251521,0.2753,6.0471,9.413,-1.6973,-7.1257997,-6.52,dws
2.6909137,-0.93259925,-0.8048237,-0.80799997,7.2655997,8.5689,-1.6631999,-7.3342,-6.2938,dws
2.0543573,-0.42884484,-0.7731983,-1.0554,6.9997997,7.8468,-1.5726,-7.647,-5.9344997,dws
1.1155097,-0.711466,-0.54592156,0.029399998,5.694,5.384,-1.4121,-8.0476,-5.4231997,dws
0.47813293,-0.38180822,-0.36374408,2.0488,2.9061,2.044,-1.2447,-8.5155,-4.7016,dws
0.4757942,1.1480776,-0.5323778,3.3806999,-0.0069999998,0.23539999,-1.2134,-8.8483,-4.0502,dws
0.108542025,1.3860707,-0.28789207,3.5742998,-1.4272,-0.2778,-1.26,-9.144199,-3.3112998,dws
-0.5311735,-1.0693458,0.16006415,0.389,-2.4808,-1.8477,-1.2324,-9.346,-2.7024,dws
1.1473097,-0.42659336,0.2653773,-3.158,-3.2654,-5.2974997,-1.1372,-9.4831,-2.2240999,dws
-1.1208155,0.09745918,0.010018189,-4.2879,-2.1359,-10.347799,-1.0076,-9.583,-1.8222,dws
-0.6166423,0.95485216,-0.2872114,-3.4752,1.3155999,-5.506,-0.92789996,-9.631599,-1.5939,dws
-1.1392812,-1.5008435,-1.0912322,-2.1987,2.1703,-2.5353,-0.8707,-9.6528,-1.4951,dws
-0.6010739,3.1610355,-0.5997999,-5.9518,-5.8097,-3.6476998,-0.7362,-9.6749,-1.4222,dws
0.0649437,-0.4071155,0.31244883,-9.4959,-10.186399,2.3226,-0.6441,-9.6818,-1.4204,dws
0.35037485,-0.5509306,0.59370863,-1.487,-1.9959999,10.8628,-0.70949996,-9.664,-1.5073,dws
1.3686348,1.1133281,-0.46595055,5.9627,0.47379997,0.59099996,-0.775,-9.6921,-1.2774,dws
0.9206088,0.5779134,-0.31641075,13.6507,-0.44939998,5.2693,-0.77459997,-9.6612,-1.4936999,dws
1.094496,0.2086541,-0.15627678,-0.036199998,-27.0504,-25.0859,-0.68939996,-9.646,-1.6272999,dws
0.84089965,0.64090234,-0.03885103,-2.8321998,-4.717,17.8217,-0.53139997,-9.6202,-1.8269999,dws
0.30602604,0.47338566,0.18884462,-7.7243,4.3266997,1.6926,-0.2974,-9.6027,-1.9671999,dws
-0.14170328,0.8333249,0.36233035,3.6792998,2.6996,4.2641997,-0.3744,-9.603499,-1.9497999,dws
-0.32578316,1.058228,0.5317495,5.3936,-3.5581,1.1692,-0.5098,-9.6121,-1.8752999,dws
-0.55880207,0.866364,0.59498274,1.2343999,-1.5541999,0.39319998,-0.3812,-9.664499,-1.619,dws
-0.66926396,0.66676813,0.41804126,-0.7859,1.1633999,0.31469998,-0.30249998,-9.6952,-1.4424,dws
-0.67214376,0.047734756,0.25998425,-1.9393,1.0173,-1.958,-0.2671,-9.725599,-1.2291,dws
-0.5837428,0.036878806,0.24214698,-1.8823999,1.4979,-3.1104,-0.2456,-9.745299,-1.0670999,dws
-0.50806534,0.5712812,0.21177825,-1.6681,3.3764,-3.1685998,-0.2735,-9.7507,-1.0088999,dws
-0.661759,0.6428222,0.34356806,-1.0152,3.8813,-4.0582,-0.32819998,-9.7456,-1.0411,dws
-0.7285179,0.3439695,0.56946605,1.773,3.9192998,-3.2905998,-0.4098,-9.7347,-1.1123999,dws
-0.9408546,0.5620484,0.5695533,4.7028,4.0281997,-0.428,-0.5056,-9.7161,-1.2293,dws
-1.5203563,0.27295205,0.53344244,3.1680999,3.9965,-1.8593999,-0.5693,-9.6942,-1.3668,dws
-2.4849648,-0.36672857,0.39955822,2.3538,4.1898,-0.80619997,-0.618,-9.6717,-1.4981999,dws
-3.36119,-0.8271639,0.07300712,1.5163,3.5702999,0.4157,-0.6631,-9.6504,-1.6121,dws
-3.697829,-0.81686646,-0.011222467,-0.021499999,2.9326,0.28669998,-0.6845,-9.6306,-1.7184999,dws
-3.6797998,-0.8140914,0.16498597,0.63879997,1.9135,-0.2626,-0.72709996,-9.601999,-1.8555,dws
-3.0746417,-0.57622045,0.1791406,3.3718,0.17019999,-1.6858,-0.8221,-9.564899,-2.0014,dws
-2.5828428,-0.8983035,0.33361968,4.2092,-1.1495,-5.1243,-0.91419995,-9.5103,-2.211,dws
-2.545266,-1.2908978,0.21956243,3.6297,-4.224,-8.653299,-0.99179995,-9.4366,-2.4771,dws
-1.431554,-0.29255208,-0.3622082,0.2705,-10.977099,-8.4379,-1.0845,-9.2932,-2.9377,dws
-0.9293355,0.1813048,-0.14589207,-3.7631998,-14.8647995,-4.9337,-1.1498,-9.0731,-3.5391998,dws
-0.5375789,-0.18823376,-0.003630285,-5.0566,-11.630199,1.3678,-1.2098,-8.7871,-4.1823,dws
-0.04852015,-0.75906116,-0.022881266,-2.8572,-5.3361,4.415,-1.3105999,-8.452,-4.7974,dws
0.41095522,-1.0574427,-0.0453262,0.2201,-1.2816,1.1144,-1.4067,-8.1033,-5.3410997,dws
0.9785712,-0.777422,0.0066497047,-1.7224,-2.8416998,-1.8428999,-1.5431,-7.8375998,-5.6886,dws
1.6638921,-0.035046212,-0.03806563,-6.4013,-6.0698,4.8803,-1.7284,-7.5319,-6.0375,dws
2.4717352,0.39896482,-0.21212731,-2.8999,-0.31649998,3.3674998,-1.7091,-7.3522,-6.2605,dws
3.2310407,0.60159755,-0.38549086,0.287,2.8871999,5.3087997,-1.6697999,-7.2511997,-6.3876,dws
3.789075,0.5419771,-0.55991906,2.2233999,3.1817,6.2128997,-1.6938,-7.1828,-6.4581,dws
3.9864717,0.050073497,-0.69314003,1.7982,3.9022,7.0730996,-1.7982,-7.1776,-6.4356,dws
3.9177232,-0.669613,-0.73668605,0.19829999,5.9132,8.3758,-1.9144,-7.2272997,-6.3459,dws
3.5204687,-1.0902723,-1.052992,0.1796,7.8996,8.4759,-2.0133998,-7.3504996,-6.1714,dws
2.6769686,-1.0468485,-1.1096803,1.1006,7.574,8.3958,-2.0126,-7.574,-5.8950996,dws
1.615756,-0.72640604,-0.91472703,2.2272,6.5920997,7.2416997,-1.9427999,-7.8375998,-5.5648,dws
0.16088445,-0.59711206,-0.6204471,3.2101,5.4999,4.6556,-1.8175,-8.1967,-5.0674996,dws
-0.16266468,-0.18751818,-0.479983,3.5158,2.7136,1.4381,-1.6721,-8.578,-4.4488,dws
-0.1609368,1.5719134,-0.32433453,2.8899999,-0.3586,0.4847,-1.5465,-8.9282,-3.7503998,dws
-0.9913121,1.4477506,0.50597095,0.42819998,-3.0124998,-1.072,-1.4578999,-9.2163,-3.0172,dws
0.5978451,-2.8242395,0.6910806,-2.9805999,-5.3547,-2.7814,-1.3047999,-9.453199,-2.2591,dws
0.1320167,-1.8026284,0.27459264,-4.9955997,-5.1053,-6.7651,-1.1531,-9.5752,-1.7764,dws
-1.9800935,3.4702382,-0.60955626,-4.5,-0.5617,-11.2884,-1.0015,-9.6469,-1.4503,dws
-1.972414,2.796192,-1.3896137,-3.1208,4.4656,-3.4455998,-0.89989996,-9.663099,-1.4086,dws
-1.2342271,-1.2435994,-0.14243633,-3.8734999,3.8019998,-3.7301,-0.81399995,-9.6664,-1.4379,dws
-0.029932396,2.580382,0.0085870195,-10.638499,-6.5539,-5.3506,-0.70769995,-9.6662,-1.4943999,dws
0.35721654,-0.28764772,0.5103692,-8.0637,-7.3778,18.7405,-0.7622,-9.6269,-1.7062999,dws
0.97515035,0.6017023,-0.08122762,5.128,-4.4287,-5.8132997,-0.9896,-9.634,-1.5416,dws
1.2234758,0.97193897,-0.32744122,18.386599,-4.4793,9.4207,-1.0974,-9.6324,-1.4772999,dws
1.139159,0.12634438,-0.07689921,3.3825,-4.986,-18.785,-0.86219996,-9.576799,-1.9265,dws
1.1631746,0.30232593,-0.049427725,-12.5933,-17.662699,13.999499,-0.4789,-9.5114,-2.3394,dws
1.0112962,0.8014028,-0.08330456,0.2592,-2.1287,6.9132,-0.5141,-9.4528,-2.559,dws
0.6559471,0.7760083,0.1648289,0.7765,2.9106998,3.3114,-0.38419998,-9.451799,-2.5857,dws
0.5586799,1.0744072,0.31297243,5.8504,-3.7433999,1.5227,-0.496,-9.4661,-2.5132,dws
0.3666413,1.2572479,0.39023817,1.6775999,-5.7247,-0.5614,-0.4518,-9.5147,-2.3314,dws
0.100653134,0.9816779,0.28804913,-0.4966,-0.9111,0.96559995,-0.3466,-9.5721,-2.1032,dws
-0.20696114,0.9038362,0.13346533,-0.261,1.5085,2.0202,-0.32729998,-9.6186,-1.8829,dws
-0.3920184,0.89081603,0.19256218,-2.3811,1.6817,-1.1686,-0.30589998,-9.6643,-1.6359999,dws
-0.50694835,0.7293731,0.4177969,-2.4364998,2.5637999,-1.6956999,-0.26999998,-9.693299,-1.4619,dws
-0.5346292,0.6873805,0.5310164,-1.0522,3.1601,-2.5461,-0.2814,-9.710899,-1.3373,dws
-0.63248986,0.98071796,0.60765386,0.97609997,3.5465,-3.2186,-0.3191,-9.7247,-1.2236999,dws
-0.9339955,0.95589936,0.6130818,3.0481,3.4931998,-3.6092,-0.3611,-9.7303,-1.1665,dws
-1.23407,0.5068785,0.650746,2.9248998,3.4248,-3.4549,-0.39479998,-9.7304,-1.1541,dws
-1.1377802,0.86254174,0.50619787,0.076299995,3.968,-2.3483,-0.3999,-9.7245,-1.2016,dws
-1.7622589,0.64015186,0.4383569,-1.1631,5.1823997,-0.86219996,-0.4157,-9.7130995,-1.2853,dws
-2.749068,-0.93682295,0.38901645,-0.28689998,5.1257997,-0.53139997,-0.4779,-9.6957,-1.3906,dws
-3.1958375,-1.3015968,0.052813664,2.3068,3.9868,0.87399995,-0.56119996,-9.6747,-1.5015999,dws
-3.4458559,-1.3951464,-0.21458822,2.3249,1.8217,-0.7958,-0.648,-9.6474,-1.6360999,dws
-2.9917037,-0.5002288,-0.19980529,1.939,0.094,-3.5244,-0.7328,-9.6064,-1.8298999,dws
-2.6813843,-0.798523,0.18263125,3.6615,-0.25869998,-1.5041,-0.83709997,-9.5479,-2.0751998,dws
-2.7899263,-1.8538015,0.535659,3.8955998,-1.1216999,-5.743,-0.89479995,-9.488999,-2.3082,dws
-1.9932183,-1.0685604,-0.46286133,2.4057999,-5.2384,-8.6031,-0.9446,-9.393,-2.6548,dws
-0.89215994,-0.13770647,-0.48418924,1.472,-11.1923,-5.7346,-1.0698999,-9.224999,-3.1501,dws
-0.6420368,-0.013543755,0.067875855,-1.4803,-13.6196995,-2.2763999,-1.1674,-9.0042,-3.7056,dws
-0.27579692,-1.1184943,0.01595231,-4.7812,-8.467299,1.5094,-1.24,-8.733399,-4.2847,dws
0.089762285,-1.7503558,-0.088278756,-3.9552999,-4.4869,-0.4876,-1.252,-8.4381,-4.8373,dws
0.44184756,-1.3197308,0.0095294975,0.49789998,-3.3516998,-0.3689,-1.351,-8.1907,-5.2208,dws
1.021995,-0.45717153,0.04717625,-3.7851,-4.9158998,0.2794,-1.6378,-7.8718996,-5.6141996,dws
1.8501188,0.04490732,-0.1460666,-5.7735,-3.1882,2.2795,-1.6891999,-7.6577997,-5.8884,dws
2.639409,-0.18610446,-0.4842067,-1.9763,0.61469996,3.0972,-1.6324999,-7.5676,-6.0196,dws
3.1496387,-0.18565068,-0.7666533,2.3409998,1.2505,4.2229,-1.6446999,-7.4874997,-6.1155996,dws
3.2919703,-0.28071874,-0.89048445,3.0786,2.2266,6.0592,-1.7842,-7.4536,-6.118,dws
3.1446993,-0.3522598,-0.8292932,1.9251,4.5067,7.4010997,-1.9839,-7.4683,-6.0379996,dws
2.764462,-0.34794885,-0.8370599,-0.40609998,7.4428997,8.7113,-2.1434999,-7.5213,-5.9164,dws
2.2309496,-0.2751686,-0.80763364,0.2629,8.1686,7.5842,-2.2045999,-7.639,-5.7405996,dws
1.57317,0.26679102,-0.85114473,1.4323,6.1468,6.0432,-2.1776,-7.8532,-5.4547997,dws
0.9021956,0.7260046,-0.92437875,1.5218999,4.8072,4.7191,-2.1201,-8.151199,-5.0231,dws
0.6242519,1.0352595,-0.8480904,1.4992,3.1796,3.1216,-1.9993999,-8.5145,-4.4357,dws
0.6301162,1.4178357,-0.68704885,0.1954,1.1836,1.3912,-1.8822,-8.7935,-3.9115,dws
0.4247957,1.7946173,-0.4457222,-1.3385999,-0.2052,-0.9004,-1.7601999,-9.052199,-3.336,dws
-0.31681216,1.6030326,-0.030072022,-1.6854999,-1.8794999,-2.8609998,-1.629,-9.250899,-2.817,dws
-1.2797452,-0.44434336,0.6855304,-1.4288,-1.8655,-4.8259,-1.4935,-9.3925,-2.3917,dws
1.1289313,-1.6106771,0.3933274,-3.0126998,0.043199997,-6.763,-1.3218,-9.4869995,-2.1021,dws
1.3564175,1.2277693,-1.2524308,-4.2072,1.9456999,-4.2787,-1.1178,-9.545899,-1.9484999,dws
-1.2907757,2.2144563,-1.8346552,-3.8186998,4.0457997,-2.6699998,-0.91789997,-9.5865,-1.8507999,dws
-2.7791226,3.4075458,-1.4440854,-2.3607,5.6419997,-1.7764,-0.71849996,-9.6235,-1.7441,dws
-0.3533768,-1.0848094,-1.0184695,-4.4867,2.455,-8.5408,-0.57339996,-9.6433,-1.6874,dws
0.5123938,-0.34784412,-0.06471681,-7.1179,-6.3124,-11.0758,-0.52129996,-9.6331,-1.7609999,dws
1.550917,3.2527528,0.53571135,6.3008,-6.3492,30.636799,-0.67179996,-9.5767,-2.0012999,dws
1.1849564,2.8463178,0.19966567,10.6939,-4.3806,1.9073999,-0.8088,-9.613299,-1.7602999,dws
1.5588233,1.6137489,-0.28853783,6.3424997,-19.8632,-24.3633,-0.5272,-9.6743,-1.5164,dws
1.9012918,1.9626052,-0.46403068,0.42909998,-18.202099,8.6993,-0.056399997,-9.6388,-1.8052,dws
1.4938622,1.8047228,-0.057316612,-11.6045,1.1388,3.8558998,0.3171,-9.533299,-2.277,dws
1.1722853,1.5915308,0.14421655,-11.1579,7.3616,9.4914,0.45889997,-9.5093,-2.3521,dws
1.4196508,1.921049,-0.013823007,3.4884999,1.9619999,13.6024,0.4536,-9.5328,-2.2561,dws
1.4123728,2.3646069,0.09236282,3.915,-8.6013,-0.086899996,0.4881,-9.6096,-1.8938999,dws
1.0902723,1.8292621,0.269985,3.3104,-8.0708,0.5718,0.5435,-9.6497,-1.6603,dws
0.90148,1.1772944,0.30127874,1.3341,-1.9175999,1.1906999,0.64669997,-9.693399,-1.3377999,dws
0.89900166,1.0327288,0.28949776,-1.3981999,-0.2528,0.2915,0.7804,-9.7303,-0.93869996,dws
0.68308693,1.0730982,0.22207569,0.2209,0.47579998,0.921,0.8185,-9.7529,-0.617,dws
0.5632003,1.0754545,0.14767231,0.89159995,0.9507,0.3901,0.8048,-9.7669,-0.36069998,dws
0.572276,0.93425727,0.063756876,-0.0101,0.2994,-0.0376,0.8143,-9.7726,-0.0506,dws
0.6038839,0.49412015,0.09325294,0.3376,2.0239,-0.2649,0.78999996,-9.7711,0.2649,dws
0.54195964,0.47989574,0.013369222,-0.48659998,1.7057999,-0.9384,0.722,-9.7668,0.5069,dws
0.43526766,0.8658404,-0.052377332,-0.0887,1.0812,-2.4162998,0.6477,-9.760099,0.7001,dws
0.27059585,1.1295946,-0.087231554,1.2698,0.7959,-3.3012998,0.5737,-9.7494,0.8889,dws
0.11952015,0.9453052,-0.06843436,1.8544999,0.7263,-3.1915,0.5089,-9.7386,1.0340999,dws
-0.18181095,1.1621449,0.10859439,2.1427999,0.86249995,-2.1742,0.4558,-9.727699,1.1543,dws
-0.6267128,1.0428866,0.07122689,2.4922,-0.062699996,-1.9113,0.4202,-9.714399,1.2738,dws
-1.2486783,0.9197711,-0.054436818,2.2591,-1.1372,-1.7872,0.3886,-9.6991,1.395,dws
-1.8338523,1.2067904,-0.19086921,1.6089,-0.937,-2.6996999,0.37199998,-9.683499,1.5033,dws
-2.5971894,0.7535285,0.20331341,0.0665,-1.8922,-2.9759998,0.3551,-9.6698,1.5933,dws
-3.4750903,0.49834386,0.62250656,-0.119399995,-0.5089,-2.947,0.3351,-9.6605,1.6524999,dws
-3.447252,1.015101,0.6165899,-2.1111,-4.1415,-4.2107,0.31649998,-9.6563,1.6804999,dws
-2.7846727,1.3379868,0.43244022,-0.3055,-2.6046999,-5.1120996,0.2565,-9.6633,1.6503999,dws
-2.4080482,1.3674306,0.41310197,2.3990998,-2.741,-6.1212997,0.2094,-9.684,1.5317999,dws
-2.2413692,1.3081766,0.2780135,1.8161999,-4.6277,-5.6741,0.19409999,-9.719399,1.2906,dws
-2.035822,0.91085243,0.34182274,-2.3911998,-5.411,-6.2011,0.2043,-9.7598,0.935,dws
-1.87115,0.5069309,0.16784832,-3.366,-5.2549,-1.533,0.1494,-9.7983,0.37579998,dws
-1.670472,-0.226631,-0.031468287,-3.863,-3.2194998,2.8479,0.038399998,-9.803599,-0.2394,dws
-1.515993,-0.77127844,-0.09236282,-4.4589,-2.119,4.1714997,-0.0815,-9.7567,-0.9844,dws
-1.2750677,-0.828246,-0.0095120445,-2.8035,-0.4362,2.8102999,-0.1286,-9.6939,-1.4765999,dws
-0.84784603,-0.7055668,0.061086524,0.3488,-1.3931,3.0065,-0.1625,-9.6098995,-1.9474,dws
-0.4423537,-0.82676244,-0.05487315,2.0426,-2.727,2.3818998,-0.15969999,-9.5116,-2.3818998,dws
-0.36505306,-0.5831843,0.18210766,1.7580999,-2.0506,2.506,-0.1792,-9.3937,-2.81,dws
-0.11248647,-0.85917324,0.55169857,-0.0348,-0.092099994,2.3135,-0.18079999,-9.2928,-3.1274,dws
0.32026792,-1.017876,0.86241955,-1.1628,1.7298,2.5535998,-0.19049999,-9.182899,-3.4362,dws
0.65769243,-1.1265228,0.9417273,-0.94729996,1.9158,3.7103,-0.2294,-9.074699,-3.7103,dws
0.8363269,-0.99338907,0.9716248,-0.0221,1.3866999,3.8679,-0.2916,-8.977099,-3.9366,dws
0.4464552,-1.7526422,0.5203001,-1.111,1.7693,3.6424,-0.3599,-8.9086,-4.0836997,dws
0.76318014,-0.56423,0.44647267,-1.2519,2.0827,3.1529,-0.42499998,-8.868899,-4.163,dws
1.258173,0.4384267,1.1617086,-1.3251,2.2891,3.6571,-0.4989,-8.84,-4.2160997,dws
1.4215882,-0.048223447,0.67580897,-0.8305,1.6653,3.0976999,-0.6698,-8.8242,-4.2254,dws
1.5123976,0.023073252,0.48298496,-1.1802,1.3844999,2.1517,-0.90849996,-8.8376,-4.1523,dws
1.5684925,0.16427039,0.42874014,-1.597,1.0461,1.2169,-1.1683999,-8.871799,-4.0118,dws
1.3923713,0.050440013,0.22137757,-2.0706,-0.0409,1.6202999,-1.4204999,-8.912499,-3.8365998,dws
