rotationRate.x,rotationRate.y,rotationRate.z,userAcceleration.x,userAcceleration.y,userAcceleration.z,gravity.x,gravity.y,gravity.z,class
0.5637588,0.024190264,-0.18172368,-0.99069995,1.8587999,-0.5086,-0.59779996,-9.478499,-2.4431,dws
0.31375784,0.27385962,-0.45881215,-1.2695999,2.1434,-0.0195,-0.5936,-9.469,-2.4810998,dws
0.041538835,0.49998447,-0.5740737,-0.6242,3.0712,2.9352,-0.6015,-9.465099,-2.4938998,dws
-0.20629792,0.4215668,-0.3294309,0.8584,3.5465,2.4682999,-0.6329,-9.4697,-2.4682999,dws
0.0084823,0.5004208,-0.1918815,0.6457,3.2337,1.3350999,-0.6457,-9.490399,-2.3844,dws
0.6495592,0.94616044,-0.3477743,0.4628,3.4687,1.2925,-0.65889996,-9.5096,-2.3026,dws
-0.6235712,-1.9228816,-0.2515543,0.3471,2.6973999,0.116799995,-0.6904,-9.532599,-2.1957998,dws
-0.20956168,0.9561263,-0.5414884,0.5032,1.0366,-1.3357999,-0.7287,-9.558499,-2.067,dws
-0.82920593,-1.3507452,-0.55122733,0.74439996,-0.36589998,-2.7956998,-0.74439996,-9.5877,-1.9211999,dws
-0.5330061,0.17153096,-0.026686084,0.0837,0.264,-3.5723999,-0.71129996,-9.6097,-1.8212,dws
0.1677436,0.09442231,0.15517722,-2.5788999,0.2771,-5.014,-0.6278,-9.6229,-1.7818999,dws
0.68779933,0.075118974,0.22183135,-3.6509,-2.1304,-4.7464,-0.50699997,-9.6277,-1.7946,dws
1.0695727,0.4389154,-0.1977458,-2.0541,-4.4017,8.6697,-0.4367,-9.621699,-1.8441999,dws
1.1850785,0.531924,-0.19092156,0.3245,-4.4003,4.1337,-0.38329998,-9.623099,-1.8486999,dws
1.3265898,0.43751913,-0.11843804,-0.0634,-5.0353,-4.7453,-0.2993,-9.6452,-1.7465999,dws
1.1523362,0.5713335,0.07288495,5.5982,-2.2703,11.1079,-0.3222,-9.625,-1.8505,dws
0.91917765,0.614129,0.20617574,-1.767,-13.3679,-18.9478,-0.18439999,-9.6188,-1.9010999,dws
0.61496675,0.49974012,0.23980823,0.14379999,-9.1031,14.458699,-0.134,-9.5883,-2.0532,dws
0.21001546,0.16831955,0.270718,-3.1403,1.5452,5.4849,-0.1252,-9.566999,-2.1506,dws
-0.21956243,0.013334315,0.23090705,2.9183998,2.75,6.2788997,-0.153,-9.5755,-2.1111,dws
-0.563689,-0.027733281,0.044680428,3.2524998,-2.6536999,1.2846,-0.1928,-9.6045,-1.9711,dws
-0.80909973,-0.099902645,-0.069673546,1.1776999,-2.1308,2.1595,-0.1382,-9.6468,-1.7573999,dws
-0.8418421,-0.109275065,0.016563175,-0.86689997,-0.1188,1.3629,-0.084199995,-9.687699,-1.5198,dws
-0.8160985,-0.42013565,0.1205848,-1.2638999,1.3608999,-0.34469998,-0.0501,-9.726,-1.2537,dws
-0.79480547,0.007871435,0.08445648,-0.084699996,1.5939,-1.92,-0.0525,-9.753099,-1.0218999,dws
-0.8929803,0.5765695,0.18757053,0.3403,1.3773999,-3.2993,-0.0854,-9.7719,-0.81939995,dws
-1.0124131,-0.17139134,0.38652062,0.8275,0.91499996,-4.6948,-0.1214,-9.7802,-0.7086,dws
-0.8410567,-0.022235494,0.41565016,2.2310998,1.3486999,-3.9915,-0.1717,-9.7824,-0.6666,dws
-0.8831017,0.4120024,0.25677285,2.6863,1.9232999,-4.5262,-0.21509999,-9.7785,-0.7104,dws
-1.0150834,-0.14276794,0.11016518,1.8398999,2.4145,-3.6780999,-0.2218,-9.7695,-0.8231,dws
-1.3268342,-0.111927964,0.0699877,0.45279998,3.0667,-2.2028,-0.2076,-9.7549,-0.98429996,dws
-1.7769371,-0.32955307,0.24160592,1.0929999,3.4503,-1.9758999,-0.2104,-9.7364,-1.1524,dws
-2.577886,-0.90840894,0.40742967,2.2805,3.1153,-0.49049997,-0.24069999,-9.715199,-1.3139,dws
-3.5247273,-1.2020257,0.24216443,0.4103,3.3571,1.4329,-0.2534,-9.6921,-1.4721999,dws
-3.7657573,-0.79429936,-0.033789575,-1.4568,4.3768997,-0.0836,-0.269,-9.6627,-1.6521,dws
-3.6360269,-0.1640784,-0.17575465,2.0723,3.7305999,2.5849,-0.3463,-9.6244,-1.8493999,dws
-3.2157516,-0.24031438,-0.11466813,4.2957997,1.9785,1.9152,-0.4222,-9.5884,-2.0133,dws
-2.978893,-0.90428996,0.10588913,2.6351,0.2323,-2.5472999,-0.44829997,-9.5486,-2.1892,dws
-2.188835,-1.0706723,-0.7542615,2.656,-0.7082,-2.7531998,-0.4691,-9.5005,-2.3854,dws
-1.436406,-0.5379279,-0.3814068,1.5891,-1.012,-4.4,-0.4809,-9.432,-2.6411,dws
-1.0131288,-0.58548814,0.16966346,0.8709,-3.8716998,-6.0046,-0.53749996,-9.3279,-2.9782,dws
-0.2832495,-0.8880759,0.095033176,-0.13,-11.3504,-6.3553996,-0.6642,-9.1552,-3.4512,dws
0.5099852,-1.1537324,-0.20142844,-3.4628,-15.3573,-2.1524,-0.79319996,-8.8846,-4.0748,dws
1.22283,-0.86193085,-0.28546605,-4.6505,-12.469,1.0085,-0.86069995,-8.517099,-4.784,dws
1.9350815,-0.20788616,-0.27928758,-2.7043998,-7.423,1.9854,-0.8455,-8.1498995,-5.3883,dws
2.7681096,0.6973812,-0.20076522,1.2427,-5.0885,0.3455,-0.8504,-7.8266997,-5.8469996,dws
3.440393,1.3344264,-0.17318901,0.1595,-4.0971,4.343,-0.9734,-7.4648,-6.2847,dws
3.4986696,0.91275483,-0.13074261,-3.5904999,-0.3705,4.474,-0.9989,-7.2001996,-6.5825,dws
3.288497,0.3162362,-0.16711527,-1.2988,3.0958998,6.028,-1.0155,-7.0185,-6.7732997,dws
3.1147668,-0.09416051,-0.2478193,0.9611,4.3198,6.8988,-1.118,-6.8792996,-6.8988,dws
2.9540396,-0.5364793,-0.59081143,0.65459996,4.0857,7.7763996,-1.2528,-6.8413,-6.9133997,dws
2.5275857,-0.69912654,-0.699336,0.40199998,4.4294,7.2899,-1.3826,-6.9203,-6.8093,dws
1.9785053,-0.3333579,-0.68924797,-1.3364999,6.2232,7.3746996,-1.4583,-7.0959997,-6.6098,dws
1.4232637,0.15608479,-0.62201786,-1.6041,6.838,7.5165,-1.4455999,-7.3577,-6.3201,dws
0.754436,0.4757942,-0.5294282,0.23259999,5.489,5.4279,-1.331,-7.7053,-5.9182997,dws
-0.004049164,0.8767138,-0.4123515,2.7145998,3.6285,2.5163,-1.1357,-8.1395,-5.3504996,dws
-0.5976356,1.2264428,0.0015882496,4.0621,1.356,1.8009,-1.0318999,-8.465799,-4.8409,dws
0.8967851,-0.7702836,0.48795915,3.2677,0.7105,1.4122,-0.9729,-8.7716,-4.2757,dws
1.2067381,-1.5018383,0.19320795,0.8466,0.113299996,0.4883,-0.9349,-9.0275,-3.7147,dws
-0.6968925,0.44668213,-0.52092844,-1.5594,-0.94589996,-0.9384,-0.8627,-9.2431,-3.1606998,dws
-1.3571506,0.93303555,-1.2388695,-2.3948998,-1.5015,-2.0333,-0.7725,-9.403399,-2.6738,dws
-1.4110638,-1.8432074,-0.8636064,-3.2145998,-0.6964,-4.7492,-0.65889996,-9.512199,-2.2918,dws
-0.12707742,1.1577467,-0.38091812,-3.2605999,0.4904,-7.6972,-0.5344,-9.5812,-2.0211,dws
0.4890587,-0.061295964,0.6479884,-3.2024999,2.2405999,-9.2579,-0.4161,-9.6152,-1.8823999,dws
1.3725967,-0.5744053,0.006876597,-6.224,-1.2383,-0.7761,-0.3071,-9.6175995,-1.8912,dws
1.4686247,0.98199207,-0.3371278,-5.3451,-5.6351,12.504399,-0.2642,-9.5945,-2.0112998,dws
1.639859,0.42510983,-0.35033995,2.1375,-7.1138,0.5173,-0.3919,-9.6261,-1.8313999,dws
1.4321648,0.6190508,-0.08196066,15.3862,-4.5826,4.8469996,-0.48009998,-9.6663,-1.5813999,dws
0.9443976,0.82740825,0.09697049,7.1976,-13.5843,-21.0794,-0.36229998,-9.6476,-1.721,dws
0.6222448,0.77703804,0.24357815,-4.0013,-17.306,10.3887,-0.088,-9.6033,-1.9843999,dws
0.14639822,0.5730091,0.4113741,-8.706699,-0.5261,8.3881,-0.0015,-9.545199,-2.2491,dws
-0.42409757,0.4481831,0.4755673,-2.4952,5.3627,10.1115,0.121999994,-9.5404,-2.2661998,dws
-0.7597244,0.44692647,0.22036527,6.2904,-2.1547,1.402,-0.0042999997,-9.564199,-2.1669,dws
-0.8457342,0.3511428,0.03932227,3.3230999,-5.9319,1.8381,-0.028099999,-9.6213,-1.8968999,dws
-0.8240747,-0.011309734,0.18826866,-2.5428,-1.6429,2.1848,0.071499996,-9.6739,-1.6062,dws
-0.6604675,-0.00020943952,0.33756414,-2.6422,2.1899,0.48619998,0.1513,-9.721499,-1.2804999,dws
-0.57124627,0.13505358,0.37519342,-1.6347,2.0885,-1.6629,0.18329999,-9.757299,-0.96519995,dws
-0.70862114,0.5918237,0.41935027,-1.1588,2.3592,-3.4352,0.17819999,-9.773,-0.79139996,dws
-0.8620356,0.5178392,0.41380012,-0.64059997,2.7616,-5.1714,0.1405,-9.7831,-0.6635,dws
-0.8671145,-0.010698868,0.48766243,1.4805,2.9903,-4.9124,0.059,-9.7863,-0.6282,dws
-0.7110646,0.5263215,0.53302354,3.0303,2.9757,-3.9176,-0.0197,-9.7815,-0.70129997,dws
-1.1718664,0.23636994,0.57798326,1.2817,3.0716999,-1.7887,-0.0559,-9.7696,-0.84919995,dws
-2.0893686,-0.33649948,0.5726949,-0.5114,4.2620997,-1.3785,-0.0572,-9.753799,-1.0142,dws
-3.3214836,-0.91181237,0.43645447,0.71209997,4.3027,-0.0317,-0.0942,-9.7355995,-1.1744,dws
-3.9091187,-1.105509,0.28153905,1.3855,2.5300999,-1.6193999,-0.15969999,-9.7183,-1.3029,dws
-3.8574395,-0.5361477,0.27265534,2.1013,2.1894999,1.0612,-0.22819999,-9.7014,-1.4143,dws
-3.3298962,-0.28736845,0.4447099,1.3794999,2.6862,2.6917,-0.29099998,-9.6783,-1.5540999,dws
-2.777709,-1.2418367,0.3615275,0.3531,2.6847,-0.86509997,-0.3531,-9.6475,-1.7236999,dws
-2.93985,-1.5949692,0.21024236,2.7210999,0.88439995,-0.70809996,-0.4459,-9.6123,-1.8906,dws
-1.9632511,-1.1263133,-0.43696064,2.4771,-1.6983999,-4.8904,-0.5256,-9.5791,-2.0328999,dws
-1.3634512,-0.6815162,-0.2669132,3.1143,-4.5174,-7.542,-0.6332,-9.5157995,-2.2842,dws
-0.98059577,-0.71052355,0.020315632,0.98789996,-10.1193,-9.2855,-0.7427,-9.4155,-2.6392999,dws
-0.44224897,-1.060078,-0.036180675,-2.6257,-14.627899,-6.5204,-0.8752,-9.212,-3.2468998,dws
0.25075147,-0.90011865,-0.16760397,-5.5955,-13.0222,0.6719,-1.0042,-8.925,-3.9375,dws
0.83391833,-0.55808645,-0.23869123,-3.4434,-7.2481,4.7988997,-1.097,-8.589499,-4.6028,dws
1.429861,0.057124626,-0.3199014,2.5911999,-2.6111999,3.4115999,-1.1987,-8.2544,-5.1572,dws
2.364991,0.90495324,-0.49225265,2.0067,-3.6174998,-3.8866,-1.4085,-7.915,-5.6159,dws
3.350945,1.434329,-0.47120398,-5.7219,-8.0480995,2.7658,-1.6035999,-7.6032,-5.9824,dws
3.8668468,1.0721906,-0.4641703,-2.8844,-2.0843,4.6884,-1.6755999,-7.3789997,-6.2379,dws
3.9218946,0.4309218,-0.56220543,-0.1648,3.8957999,5.9388,-1.7278,-7.2007,-6.4291,dws
3.763279,-0.013631022,-0.5546656,1.5388,4.9498,7.9033,-1.8133999,-7.0875998,-6.5304,dws
3.5930047,-0.1356819,-0.6322281,1.4861,4.9349,8.658899,-1.9469999,-7.0334997,-6.5504,dws
2.9795039,-0.26307347,-0.8114385,0.94259995,5.3299,8.5258,-2.0409,-7.0754,-6.4761996,dws
1.7796948,-0.065240405,-0.5430592,-0.1568,7.4104,8.6945,-2.079,-7.1947,-6.3311,dws
0.60294145,0.049131017,-0.2600017,-0.7977,8.4084,9.377299,-2.0265,-7.3884997,-6.1215,dws
0.07154105,0.36274922,-0.20149826,0.2882,7.5446,7.6263,-1.8277999,-7.7211,-5.7630997,dws
-0.10882128,0.7366162,-0.12580334,3.0602999,5.4051,4.0134,-1.6186999,-8.0725,-5.3275,dws
-0.17331119,1.1811864,0.34929276,4.0334,2.6032,1.7645999,-1.4347,-8.4774,-4.7163997,dws
0.9957278,-1.9627798,0.22931881,2.3783998,0.64,1.1816,-1.2996,-8.8384,-4.0450997,dws
1.0372841,-1.9063534,0.13803808,-0.2012,-1.3601999,0.47129998,-1.2011,-9.1328,-3.3643,dws
-1.1956203,1.4279411,-0.79265875,-2.4178998,-4.2552,-3.3088999,-1.0928,-9.366099,-2.6927,dws
-1.4310129,0.12044517,-1.4382386,-3.6115,-4.463,-6.0947,-0.93869996,-9.5408,-2.0643,dws
-1.4976146,0.8505688,-0.6738542,-2.2012,0.00029999999,-7.6689,-0.8486,-9.6108,-1.7551999,dws
-0.42046726,2.0431697,-0.089186326,-1.9375,3.3593,-4.0776,-0.7985,-9.6355,-1.6394999,dws
-0.041486476,-0.36589083,0.84512335,-2.3344998,4.9929,-6.2433,-0.74469995,-9.6412,-1.6313,dws
1.1358777,-0.22172663,-0.09292133,-5.7486997,-0.4123,2.1994998,-0.704,-9.6394,-1.6602,dws
1.4153574,1.8804352,-0.5008048,-2.7858,-8.3569,6.054,-0.73469996,-9.6284,-1.7097,dws
1.2492543,-0.05300565,-0.22376867,3.5310998,-9.9271,4.6914997,-0.8441,-9.6567,-1.4847,dws
1.1724598,-0.07778932,-0.037524577,18.0443,-3.4675,4.1893997,-0.9219,-9.6831,-1.2473999,dws
0.5951922,0.57988566,0.10379473,1.6301999,-18.315199,-32.4363,-0.728,-9.663099,-1.5044999,dws
0.20975366,0.72076863,0.18109536,-8.095099,-16.9428,17.2559,-0.4464,-9.6332,-1.7809999,dws
0.037315138,1.0676702,0.33011156,-11.0703,2.5298,9.7612,-0.2857,-9.5808,-2.0727,dws
-0.18058921,0.4803146,0.42842597,0.7427,7.0435996,3.9157,-0.1837,-9.5639,-2.1603,dws
-0.38313466,0.27659976,0.20722294,9.05,-1.5429,3.4382,-0.3613,-9.5582,-2.1633,dws
-0.4886573,0.37133625,-0.03609341,3.2059999,-6.5649,0.5778,-0.3523,-9.6061,-1.9409,dws
-0.5142787,-0.089919366,0.09375909,-2.2245998,-1.3716999,0.8612,-0.18779999,-9.6606,-1.6751,dws
-0.458306,0.3204948,0.37840483,-1.5206,1.8455,-0.8057,-0.14639999,-9.7007,-1.4301,dws
-0.54737014,0.9138718,0.5962917,-1.29,1.9847,-3.8212998,-0.1417,-9.7319,-1.1996,dws
-0.9045518,0.7663217,0.6722485,-1.5961,3.0867,-4.6137,-0.1494,-9.745399,-1.0838,dws
-1.2942839,0.5862386,0.63186157,-1.5065,4.189,-3.1922,-0.17029999,-9.7494,-1.0442,dws
-1.7934829,0.26516786,0.6067288,1.5861,5.0908,-2.1269999,-0.21319999,-9.748899,-1.0404,dws
-2.7090127,-0.53400093,0.4575555,5.1408,5.3986998,-0.069699995,-0.2865,-9.743,-1.0776,dws
-3.3637207,-0.6516012,0.3258006,2.4779,4.4965,-0.47419998,-0.3204,-9.7332,-1.1536,dws
-3.7669091,-0.68533844,0.20586158,-1.8137,4.2496,-1.6321,-0.30449998,-9.7217,-1.2509999,dws
-3.4347906,-0.2523048,0.104178704,-1.5575,3.6668,0.4579,-0.3252,-9.7077,-1.3503,dws
-2.7400622,-0.40488148,0.29698524,0.42909998,2.1999,0.1275,-0.3899,-9.6922,-1.4416,dws
-2.8668778,-1.2642467,0.46965066,2.0959,0.97209996,-1.9058,-0.47779998,-9.6706,-1.5558,dws
-2.3144462,-1.0067931,-0.38250637,3.4359,0.38189998,-2.7141,-0.592,-9.6296,-1.7576,dws
-1.3545849,-0.114388876,-0.49389327,3.2596,-1.1596,-3.728,-0.68039995,-9.5786,-1.9892,dws
-1.1236954,-0.6455624,-0.36452946,2.0384998,-6.4635,-7.4694996,-0.7833,-9.491799,-2.3371,dws
-0.57936203,-1.2601452,-0.45500734,-0.2302,-13.0321,-7.0634,-0.9072,-9.327,-2.8902,dws
0.031730086,-1.5540587,-0.5748416,-2.6606,-16.161999,-2.6011999,-0.99719995,-9.1293,-3.4396,dws
0.6539923,-1.4218674,-0.56812215,-3.4455,-10.478499,2.9559,-1.0850999,-8.8405,-4.1033,dws
1.2568989,-0.7867595,-0.48966956,-1.5425999,-3.7321,4.3908,-1.1247,-8.536,-4.6948,dws
2.0029922,-0.0953997,-0.51314425,0.86969995,-1.2723,-3.1062,-1.2227,-8.2302,-5.1900997,dws
2.815286,0.548906,-0.4145506,-1.9604,-7.5333,1.3015,-1.413,-7.9414997,-5.5772,dws
3.4005995,0.8956681,-0.2933375,-1.0421,-5.4044,2.8885999,-1.4683,-7.6874,-5.909,dws
3.5550263,0.5072276,-0.3511428,0.308,0.86139995,3.7180998,-1.4064,-7.5397,-6.1109,dws
3.3746989,-0.012130038,-0.41343358,1.8331,3.0482,5.1611,-1.4311,-7.4122,-6.2594,dws
3.261043,-0.28663543,-0.60267967,1.3542,3.6315,6.3012,-1.5308,-7.3482,-6.311,dws
3.0462103,-0.53839916,-0.94399625,0.44329998,4.5944,7.4672,-1.6299,-7.3697,-6.2609997,dws
2.2193956,-0.2687458,-0.99169606,-0.46559998,6.2651,8.2424,-1.7212,-7.4712996,-6.1144,dws
1.1913618,-0.38226202,-0.6975034,-0.6119,7.8272,8.5723,-1.7415999,-7.6408997,-5.8950996,dws
0.046146505,-0.7748564,-0.36911967,-0.80789995,7.7331,8.5694,-1.6731,-7.89,-5.5783997,dws
-0.14496705,0.42060688,-0.27141616,1.0967,6.726,5.9542,-1.5478,-8.2067995,-5.1401997,dws
0.26260224,1.5525751,-0.28815386,2.8005998,4.7946,2.8125,-1.3982999,-8.58,-4.5385,dws
0.10702359,0.25982717,0.020856684,2.7161,2.6258,1.9010999,-1.304,-8.8628,-3.9898999,dws
-0.6431887,-1.517843,0.18476056,1.3968999,1.1113,2.1243,-1.2300999,-9.1233,-3.3795998,dws
0.7661472,0.66596526,-0.4051433,-0.5603,-1.6933,0.119799994,-1.1360999,-9.3391,-2.7675998,dws
-0.770877,0.59609973,-0.77733475,-2.7221,-3.8851998,-3.3811,-0.98469996,-9.5106,-2.1792,dws
-2.6391299,-1.400714,0.062849306,-3.9404,-3.4858,-8.538899,-0.8059,-9.6158,-1.7481999,dws
-0.5884901,3.05286,-0.79719657,-3.1007,-0.5043,-8.9513,-0.6846,-9.6651,-1.5123,dws
-0.3081728,-0.94233817,0.46430993,-2.2357,4.2188,-1.5273,-0.6375,-9.6713,-1.4929999,dws
0.7120943,-0.5508259,0.5327268,-2.1624,4.7275,-2.7001998,-0.5736,-9.6701,-1.5264,dws
1.5055559,0.9679945,-0.44905576,-4.3717,-3.813,-3.9011,-0.4727,-9.6807995,-1.4925,dws
1.4352715,0.64217645,-0.3523296,-3.4417,-9.7529,7.4754,-0.471,-9.6838,-1.4738,dws
1.5029902,0.015428711,-0.1515993,2.7612998,-3.6941998,5.9747996,-0.5548,-9.6623,-1.5813999,dws
1.4412755,1.0429215,-0.058451075,2.2619998,-4.3731,-9.5338,-0.45749998,-9.6895,-1.4397999,dws
1.0038435,0.97157246,0.08714429,5.2222,-26.4557,-6.8301997,-0.28939998,-9.6719,-1.5935999,dws
0.64434063,1.0196038,0.20662953,1.8833,-3.5272,10.0644,-0.3534,-9.5744,-2.0915,dws
0.35140458,0.9427396,0.37788123,-8.960899,6.1303997,9.256,-0.070999995,-9.552899,-2.2148,dws
0.009267698,0.62214005,0.5024105,5.3315997,3.1445,4.3768,-0.20269999,-9.5385,-2.2684,dws
-0.29600784,0.43629742,0.36093408,4.0945997,-7.5841,2.695,-0.3288,-9.567699,-2.1262,dws
-0.74419093,0.492497,0.1357168,-0.3446,-5.256,0.34849998,-0.20439999,-9.6304,-1.8391,dws
-0.98764694,0.44090506,0.10250319,-1.8069999,0.3548,1.188,-0.114999995,-9.6809,-1.5605999,dws
-1.0401639,0.09136798,0.32377604,-1.4045999,1.9670999,-0.2835,-0.0859,-9.724199,-1.2659,dws
-0.8753699,-0.018168878,0.4959353,-0.9287,2.0293,-1.8011999,-0.051799998,-9.757,-0.9837,dws
-0.8400793,0.8590685,0.51909584,-1.1927,2.5376,-2.8223,-0.052699998,-9.7748995,-0.78639996,dws
-0.9469284,0.5787861,0.43771112,-1.3914,3.0075998,-3.8899999,-0.0795,-9.783999,-0.6602,dws
-1.2218876,-0.02994985,0.49794245,0.62329996,3.227,-4.2518,-0.1428,-9.7876,-0.5926,dws
-1.7937796,0.03642502,0.5675636,3.0391998,3.2252,-4.6046,-0.23449999,-9.7859,-0.59279996,dws
-2.8367534,-0.07023205,0.720245,2.987,3.6706998,-4.4851,-0.29999998,-9.7802,-0.65349996,dws
-4.0342937,-0.11006046,1.0430961,0.35889998,3.8451998,-2.0509,-0.3196,-9.768499,-0.8027,dws
-4.2157555,0.009826204,1.1920599,-0.7662,4.1895,-0.6972,-0.3321,-9.7499,-0.9992,dws
-3.8741772,0.20127137,0.69090605,1.0662999,4.4163,-0.5218,-0.3994,-9.7217,-1.2236999,dws
-3.6277542,-0.53239524,0.09855874,3.2028,3.8525,2.1912,-0.48639998,-9.6972,-1.3772,dws
-3.0671194,-1.0543709,-0.07567748,1.8068,1.7727,-2.6276,-0.5614,-9.667,-1.5498999,dws
-2.8441012,-1.8639244,0.29147,1.4696,-0.1466,-3.2702,-0.6263,-9.6305,-1.7408999,dws
-1.8816569,-1.3616536,-0.47492155,2.3990998,-1.4053,-4.0246,-0.7222,-9.5781,-1.977,dws
-0.8647757,-0.86346674,-0.41139156,0.2591,-2.8646,-7.1117,-0.8279,-9.4916,-2.3222,dws
-0.17097245,-0.24087289,-0.15688765,-4.2111998,-7.8012996,-11.4003,-0.9666,-9.3308,-2.8585,dws
0.34129915,-0.6389127,-0.20539035,-6.0225997,-15.4035,-4.6129,-1.1852,-9.0149,-3.6736,dws
1.0573554,-1.0358878,-0.6189112,-0.1457,-15.0499,0.8172,-1.3742,-8.682099,-4.3476,dws
1.7482615,-1.2589234,-0.9381494,4.7669,-9.842999,3.8358,-1.4718,-8.2992,-5.0126,dws
2.6118329,-0.33297393,-0.9224589,2.5237,-4.7783,1.094,-1.5431,-7.9114,-5.5855,dws
3.6249616,0.87067497,-0.85885906,0.70129997,-3.1315,2.1138,-1.6524999,-7.5576,-6.0266,dws
4.180989,0.8761029,-0.8301135,-5.4384,-1.7001,4.0357,-1.9262999,-7.1945,-6.3795,dws
4.004728,0.07836528,-0.7497411,-3.0342999,2.7429,7.1211996,-2.0356,-6.9695997,-6.5916,dws
3.576005,-0.2451315,-0.58082813,0.6125,5.1661,7.7538,-2.0932999,-6.8724,-6.6751,dws
3.2133083,-0.5176123,-0.83655375,3.3100998,4.572,7.2369,-2.1039,-6.8568997,-6.6877,dws
2.5408852,-0.617323,-1.0605668,2.7586,3.5876,8.1227,-2.1604,-6.9121,-6.6124997,dws
1.7492563,-0.32323498,-0.9826378,1.0123,4.4498997,8.0753,-2.2087,-7.0780997,-6.4179997,dws
0.9718517,-0.044191737,-0.7280641,-1.7106999,6.7711997,8.4719,-2.2315,-7.3399997,-6.1085,dws
0.27963665,-0.09176941,-0.51940995,-0.8785,7.2528,7.1682,-2.1223,-7.7235,-5.658,dws
0.34101987,1.0470405,-0.49028045,1.7978,5.1966,3.9452999,-1.9154999,-8.1092,-5.1710997,dws
-0.045814894,1.3819517,-0.15248941,3.0042,2.0245,2.0819,-1.6704999,-8.5851,-4.4354997,dws
-0.5391148,0.2653424,0.51836276,2.8116,-0.13669999,2.2654,-1.5465,-8.905,-3.8051,dws
0.31394982,-2.9591534,0.7764621,1.6544,-2.1838999,0.2069,-1.4583,-9.1721,-3.1489,dws
-0.024836035,-0.25150195,0.05900958,-1.3253,-3.409,-2.5632,-1.3321999,-9.378799,-2.5361,dws
-0.70010394,4.3683147,-1.28451,-3.5568,-2.3734999,-4.5119,-1.1601,-9.5219,-2.0389,dws
-1.387659,-1.9867955,-1.3995446,-4.9776,0.2038,-7.9431996,-0.98469996,-9.608399,-1.6966,dws
-1.0282607,2.133281,-0.013508848,-4.5661,2.4743,-5.6893,-0.847,-9.652699,-1.5087,dws
0.4641703,2.113297,-0.29862583,-3.0932999,4.7462,-1.3413,-0.75079995,-9.6692,-1.4534999,dws
-0.2677684,0.28105035,0.9050056,-3.7064998,3.3895998,-3.8339999,-0.6279,-9.6854,-1.4027,dws
0.9116727,-1.0573205,0.13165018,-8.5876,-5.4948997,-0.1795,-0.56189996,-9.685699,-1.4287,dws
1.3556845,1.9364079,-0.33272958,-4.6184998,-9.5478,11.1559,-0.6574,-9.6633,-1.5354999,dws
1.399789,1.0531317,-0.17647023,9.9289,-5.0492997,1.3985,-0.89699996,-9.6605,-1.4279,dws
1.3024344,0.15763813,0.07513642,15.9588995,-1.3830999,13.115299,-0.9155,-9.6591,-1.4258,dws
0.8263436,0.43915975,0.168337,-2.9471,-15.9099,-56.2813,-0.5341,-9.6559,-1.6269,dws
0.53907984,0.6735924,0.19402826,-4.0487,-17.8433,35.3525,-0.31509998,-9.6152,-1.9021,dws
0.40641737,1.0282258,0.25553367,-8.264299,0.297,1.3455,-0.22809999,-9.5741,-2.1104,dws
0.22359413,0.9735621,0.3552792,-1.1758,5.5717,2.7811,-0.099,-9.5924,-2.0358,dws
0.013840461,0.38669515,0.2679953,7.4205,-1.2383,2.7247999,-0.2617,-9.5782995,-2.0873,dws
-0.39219293,0.31641075,0.050806534,3.3990998,-4.6741,1.9835,-0.3296,-9.6140995,-1.905,dws
-0.8580562,0.5187991,0.117338486,-1.8915999,-1.3386999,0.6623,-0.1971,-9.6643,-1.6527,dws
-0.8280715,0.118752204,0.32388076,-2.2967,1.1012,-0.55509996,-0.12539999,-9.7114,-1.3571,dws
-0.770336,0.017784905,0.6921103,0.13589999,1.7088,-3.0194,-0.13589999,-9.7404995,-1.1287,dws
-0.68514645,1.059537,0.5437224,0.2877,2.9220998,-4.3564997,-0.1602,-9.757299,-0.9684,dws
-0.8836602,0.8242841,0.2626895,-0.6371,3.6079998,-3.3808,-0.1866,-9.7666,-0.86539996,dws
-1.253286,0.38479275,0.038100537,0.3281,4.3687,-3.8971,-0.22019999,-9.7722,-0.79039997,dws
-1.7959613,0.4027871,0.08998918,3.1682,4.8705,-3.0235,-0.27519998,-9.7738,-0.752,dws
-2.7247207,-0.4494921,0.25246188,3.8621998,3.6432,-3.6899,-0.322,-9.7724,-0.7524,dws
-3.0430164,-0.7096509,-0.07548549,0.3468,3.4993,-0.639,-0.32709998,-9.7657995,-0.8319,dws
-3.2981837,-0.8589638,-0.305293,-2.9442,5.2479,0.0033999998,-0.341,-9.7491,-1.0037,dws
-3.1380844,-0.7936012,-0.17729054,-1.7651,5.5313997,0.137,-0.40199998,-9.7286,-1.1667,dws
-2.5696135,-0.97148514,0.09536479,4.1549997,3.1815,2.1803,-0.5363,-9.7029,-1.3173,dws
-2.8493547,-2.043257,0.36081192,4.9172997,0.34149998,-2.7928,-0.6121,-9.6775,-1.4632,dws
-2.4280672,-1.850241,-0.6803817,4.2359,-1.0425999,-5.6603,-0.6368,-9.6465,-1.6456,dws
-1.3888981,0.070912726,-0.21368065,3.4631999,-1.7986,-4.2111998,-0.62909997,-9.5966,-1.9178,dws
-1.3324716,-0.27403414,0.06775368,0.0796,-5.0934997,-8.1712,-0.62869996,-9.5281,-2.2336,dws
-0.89221233,-1.0684208,0.028797932,-0.2629,-11.372,-6.2767,-0.6981,-9.388599,-2.7452998,dws
-0.47607344,-1.6780642,-0.043860123,-0.931,-14.7918,-2.0119998,-0.7262,-9.205,-3.3030999,dws
-0.12449434,-1.8192265,0.03408628,-2.6413999,-9.5336,1.5185,-0.7319,-8.971499,-3.8916998,dws
0.34517378,-1.562506,0.10046115,-1.8912,-3.5656,3.0533,-0.76629996,-8.7122,-4.4361,dws
0.9664586,-0.70671874,0.1484228,1.8544999,-1.8314999,-3.2052,-0.8836,-8.4458,-4.9048,dws
1.6195608,-0.10979866,0.027174776,-4.8568997,-8.7196,-0.0299,-1.1251,-8.1771,-5.295,dws
2.2253122,0.08539896,-0.16205382,-5.9112,-5.9786,2.2698,-1.2182,-7.9270997,-5.6433,dws
2.7261345,0.31866223,-0.33154273,-2.5929,-1.5304999,1.2857,-1.1728,-7.7563,-5.8849998,dws
3.149534,0.47099456,-0.37411132,0.28039998,0.18769999,3.1313999,-1.212,-7.6113997,-6.0636,dws
3.3332298,0.54244834,-0.44580945,0.6807,0.8231,4.6608,-1.3475,-7.5014997,-6.171,dws
3.223466,0.672807,-0.5404412,0.0197,2.7015998,5.9108,-1.5690999,-7.4382,-6.1951,dws
3.0221946,0.84875363,-0.67760664,-0.78279996,5.1386,7.5491,-1.7766,-7.4234996,-6.1566,dws
2.6672645,0.6821794,-0.7020587,-1.3313999,6.9522,7.9287996,-1.9830999,-7.4621,-6.0459,dws
2.0113175,0.4948881,-0.71635294,0.0312,6.8851,6.9694,-2.0906,-7.5715,-5.8711,dws
1.329557,0.6803817,-0.8098677,1.3158,6.1959,6.141,-2.1101,-7.7748,-5.5917997,dws
0.558645,1.0758035,-0.774996,1.4520999,5.3708,5.9058,-2.0797,-7.9989996,-5.2781997,dws
0.23542747,1.372684,-0.80737185,2.0152,4.1586,4.5863,-1.9857999,-8.3166,-4.8020997,dws
0.05045747,1.5354708,-0.638232,1.7143999,2.8327,3.5535,-1.8908999,-8.5892,-4.3381,dws
-0.5056219,0.9479058,-0.03010693,0.42409998,1.7147,2.2361999,-1.7578,-8.903,-3.717,dws
-0.6116157,-1.5524703,0.44350561,-0.6798,0.631,0.9501,-1.6148,-9.1432,-3.1566,dws
1.0139315,2.484895,-0.85695666,-0.5027,-0.2798,-2.1677,-1.4584999,-9.3208,-2.6766999,dws
0.2881364,0.8193099,-1.5020478,-0.5592,-0.3365,-5.6517,-1.2942,-9.470099,-2.1935,dws
0.022671826,3.182887,-1.4101039,-2.4894,-1.3857,-7.5624,-1.1389999,-9.5682,-1.8225,dws
0.059672806,-1.0223266,-0.9954485,-4.0004997,-1.8041999,-8.205,-0.96159995,-9.6303,-1.582,dws
0.39400807,0.3472507,-0.14234905,-3.1029,1.6192,-5.1844,-0.7805,-9.6607,-1.4937999,dws
1.390207,1.7317506,-0.630378,-2.4840999,4.7079997,-5.0266,-0.5657,-9.679999,-1.4653,dws
1.4043967,2.0661557,-0.04724606,-4.713,-3.0325,-6.6478996,-0.4157,-9.6866,-1.4719,dws
1.2790471,2.142636,0.05900958,1.3241,-10.824699,0.5394,-0.3827,-9.6711,-1.5789,dws
0.99892175,1.5958244,-0.19687314,8.1207,-7.2595997,17.5211,-0.52059996,-9.646999,-1.6832999,dws
1.3420534,2.372426,-0.6481978,3.5425,-3.8569999,-9.2591,-0.2769,-9.6859,-1.5085,dws
1.1649724,2.1866882,-0.30789354,4.6769,1.4513999,17.6096,0.0694,-9.6988,-1.4483,dws
0.67142814,2.478577,-0.038030725,-7.7222,-13.5876,-22.2995,0.39659998,-9.693299,-1.4325,dws
0.51909584,2.3285136,0.21788691,-0.7353,-12.801,14.542,0.5588,-9.685599,-1.4304999,dws
0.36540213,1.993131,0.24424137,-4.9384,-0.8077,5.3210998,0.5941,-9.6951,-1.3493999,dws
0.4153709,1.6050222,0.10934488,-4.7766,0.6688,5.8503,0.75589997,-9.7204,-1.0548999,dws
0.5422214,1.3733124,-0.15392059,3.0045,-1.4833,4.7194,0.8003,-9.7452,-0.7477,dws
0.7618711,1.0054144,-0.32700488,5.1098,-1.2313,-0.35169998,0.81329995,-9.7619,-0.4622,dws
0.7467042,0.6906268,-0.32192597,-1.5575999,-3.679,3.3474,0.8613,-9.7657995,-0.23869999,dws
0.60576886,0.59849083,-0.11082841,-2.1864998,-1.0505999,-1.5787,0.99009997,-9.7562,0.0685,dws
0.5778611,0.68207467,0.07745771,-2.314,-0.0611,-0.34129998,1.0390999,-9.745399,0.34129998,dws
0.5302834,1.035434,0.13171999,-0.0717,0.7855,-2.1520998,1.023,-9.738999,0.52419996,dws
0.5917015,1.4670191,0.07464773,2.1871,1.0878,-2.0056,0.95089996,-9.7372,0.67179996,dws
0.5784719,1.5337081,0.05108579,3.7556999,1.0184,-1.3485,0.87299997,-9.7365,0.7797,dws
0.34824553,1.366139,-0.01691224,3.7459,2.2196,-0.66249996,0.8239,-9.7315,0.88809997,dws
0.17411405,1.5268664,0.05715953,1.7227999,2.1185,-0.8104,0.8269,-9.718699,1.0163,dws
0.013281955,2.0629618,0.1601514,-0.6027,2.4297,-1.299,0.8674,-9.6965,1.1812999,dws
-0.31031954,2.3324928,0.24188519,-1.9804,3.1506,-0.9754,0.91139996,-9.672,1.3382,dws
-1.066082,1.8646574,0.27560493,-2.4545999,1.4351,-1.5249,0.91499996,-9.6531,1.466,dws
-2.0013342,1.5087674,0.3389953,-0.427,1.066,-1.3737,0.8781,-9.637,1.5895,dws
-2.5077064,1.2388871,0.26146778,0.7281,-0.2059,-0.5635,0.81149995,-9.620299,1.7206999,dws
-2.8356538,0.68921304,0.34950218,0.3085,-3.7343998,-1.196,0.75049996,-9.6025,1.8432,dws
-2.6957483,0.33653438,0.29143506,-0.6713,-2.3237998,-1.8184999,0.6811,-9.5814,1.9754,dws
-1.9547862,0.5514717,0.100059725,-1.5401,-2.1808,-3.4808,0.6281,-9.5674,2.0588,dws
-1.4865143,0.5499358,-0.08447394,-1.5134,-0.94159997,-4.0798,0.5523,-9.561299,2.1087,dws
-1.0443003,-0.13025393,-0.34602898,-1.4038,-2.4306998,-4.9832997,0.43289998,-9.562799,2.1296,dws
-0.98593646,-0.6121917,0.39016834,-1.2873,-4.7981997,-6.8698997,0.287,-9.578199,2.0843,dws
-2.1042912,-0.39959314,0.7312406,0.243,-5.8033,-5.9544,0.1589,-9.622499,1.8845999,dws
-2.4618218,-0.65027475,0.4350582,0.70489997,-3.1002,-1.9591,0.030499998,-9.6974,1.4589,dws
-1.9536518,-0.10077531,0.49286354,2.3676,-3.5735,0.48389998,-0.043399997,-9.753699,1.0164,dws
-1.3001655,0.624793,0.2759191,3.3386998,-2.3552,4.2198,-0.122099996,-9.7951,0.4579,dws
-0.6246359,0.79634136,0.13454743,1.4554,-4.2482,3.0749,-0.1805,-9.8047,-0.074,dws
-0.36372662,0.8978672,0.3690673,-1.1657,-5.9556,0.41259998,-0.1973,-9.7937,-0.4617,dws
-0.03986332,0.51834536,0.73909456,-3.2577999,-3.4631,1.1589,-0.1744,-9.7758,-0.7568,dws
0.6284233,0.5745449,0.833098,-1.8876,1.0386,2.7282999,-0.103099994,-9.7567,-0.9827,dws
1.2597089,0.500159,0.74473196,-0.8849,2.2344,3.4994,-0.184,-9.7365,-1.1556,dws
1.519728,0.3944095,0.5328141,-4.5260997,0.19229999,4.0148997,-0.33789998,-9.6753,-1.5633,dws
1.3740628,0.33724996,0.31218705,-2.3778,0.9435,5.2201,-0.4464,-9.5831995,-2.033,dws
1.2277868,0.25795966,0.10489429,-0.0813,1.2538999,4.4839,-0.5462,-9.4914,-2.4048998,dws
1.2309632,-0.17044885,0.102450825,-0.039899997,3.313,5.0209,-0.56799996,-9.4225,-2.6575,dws
0.8914967,-0.94472927,0.08230973,-0.8038,3.3425999,4.3062997,-0.5494,-9.3835,-2.7961,dws
0.08667305,-1.3735392,0.048136182,-0.8742,2.5751998,3.9443998,-0.56729996,-9.3614,-2.8657,dws
-0.20423843,-0.49078658,0.07543313,-0.0092,2.5442998,5.1733,-0.6771,-9.3501,-2.8786,dws
