rotationRate.x,rotationRate.y,rotationRate.z,userAcceleration.x,userAcceleration.y,userAcceleration.z,gravity.x,gravity.y,gravity.z,class
-0.1110553,0.10855948,-1.6545547,0.9102,-0.6591,0.0871,-3.352,-9.1572,-1.0382999,jog
-0.47534043,-0.46640435,-1.8364704,1.0129,-1.7486,0.42769998,-3.1311,-9.215199,-1.2024,jog
-0.3360806,-0.33363715,-1.7998184,0.401,-2.6125998,0.76379997,-2.8723,-9.2827,-1.3227,jog
0.09730211,-0.19968311,-1.4596887,-0.4301,1.5323,0.7364,-2.6097999,-9.3482,-1.4032999,jog
0.38786453,-0.79473567,-1.0908133,-0.22369999,3.7721999,-1.0141,-2.424,-9.391399,-1.4473,jog
1.0060776,-1.7582098,-0.9957976,0.55509996,4.1351,-0.1112,-2.1045,-9.4797,-1.3694999,jog
1.7952107,-1.2528671,-0.885807,-0.5787,1.4905,1.4074,-1.8533,-9.5418,-1.2995,jog
2.0190492,-1.1299436,-0.6835233,-1.5033,-0.585,-0.0629,-1.5465,-9.604,-1.2413,jog
1.7044885,-1.1309384,-0.31831315,-1.7170999,-2.4407,-0.1165,-1.1953,-9.6508,-1.2662,jog
1.4742621,-0.9624618,0.08075638,-2.9148,-2.3585,2.6806998,-0.89,-9.6741,-1.3371999,jog
1.6183041,-0.872141,0.32939598,-2.2305999,-2.2238,1.9429,-0.55439997,-9.691199,-1.3938,jog
1.9149404,-0.7809825,0.013020156,-1.2178999,-2.3741999,0.7299,-0.253,-9.7074995,-1.3672999,jog
1.7304242,-0.6555806,0.5546133,-0.8854,-4.1751,4.3514,-0.0854,-9.720799,-1.2917,jog
1.566049,-1.0356435,0.75850266,-2.1216,-4.6404,5.5404997,0.0622,-9.7458,-1.0883,jog
1.17705,-0.84294164,0.5579294,-2.1550999,-3.0184999,1.9541999,0.2232,-9.779099,-0.699,jog
1.6479399,-0.61994094,0.79948294,-2.0344,-1.9922999,0.78249997,0.32799998,-9.795199,-0.3412,jog
1.7161998,-1.0713354,0.79953533,-1.6561999,-1.851,0.83129996,0.3813,-9.7992,-0.0075,jog
1.7378069,-1.3832258,0.7194247,-1.1564,-4.8266,1.2492,0.362,-9.795,0.3099,jog
1.7586985,-1.7870426,0.6631204,-2.0219,-4.9655,0.7363,0.3058,-9.7836,0.5973,jog
1.4703351,-1.9937943,0.64788365,-1.5359,-3.9759998,-0.72819996,0.31,-9.7532,0.9733,jog
1.3358575,-2.0850925,0.6394363,0.5225,-3.7724,-1.5912,0.2031,-9.7116995,1.346,jog
1.2353091,-2.1070836,0.535467,-1.8485999,-0.23359999,1.839,0.0932,-9.671,1.6226,jog
1.0198133,-1.8776252,0.31703904,-2.8922,1.0978,-0.2074,0.009,-9.6296,1.8549999,jog
0.811805,-1.704698,0.15892968,-1.0881,1.3944,-1.3952,-0.13769999,-9.5535,2.2091,jog
0.5138424,-1.3919176,0.054628804,-0.29479998,1.7195,-1.8447,-0.2346,-9.4766,2.5116,jog
0.16678366,-1.0652966,0.04590216,-0.3163,0.1697,-1.8212999,-0.3014,-9.3782,2.8509998,jog
-0.23434536,-0.8980417,0.032201324,0.2042,-0.1971,-0.6935,-0.32189998,-9.2662,3.1941998,jog
-0.6550221,-0.9196314,-0.05588544,0.28309998,-0.34989998,-1.1083,-0.3126,-9.162399,3.4815,jog
-1.0858042,-0.96544635,-0.085172065,1.3568,0.4989,-1.3047,-0.27809998,-9.0503,3.7661998,jog
-1.3939421,-0.6188065,0.031660274,2.5865,0.84999996,-1.4817,-0.21329999,-8.9503,4.002,jog
-1.3531014,-0.1476374,0.23863886,2.0105999,1.5473,-1.2226,-0.1277,-8.8728,4.1744,jog
-0.9861983,0.21994638,0.45052183,1.5712999,1.7708,-0.73399997,-0.0121,-8.802199,4.3233,jog
-0.67545986,0.5619786,0.5927487,1.1166999,1.5871999,-0.4043,0.099199995,-8.7558,4.4151998,jog
-0.46909213,1.0945308,0.6541843,0.7168,1.3062999,-0.5118,0.1853,-8.739699,4.4442997,jog
-0.33000687,1.7570404,0.59142226,0.3195,1.0708,-0.6559,0.259,-8.7592,4.402,jog
-0.6948679,2.4640908,0.71425855,-0.113199994,0.78279996,0.079799995,0.3486,-8.8144,4.2841,jog
-0.43744934,1.6761619,0.19463912,-0.41489998,0.1361,1.6104,0.4443,-8.9032,4.0871,jog
1.6023868,-2.2565536,0.3044378,-0.8542,-0.23439999,2.6922,0.49139997,-9.023,3.8095,jog
-0.473822,1.9659913,0.33194417,-0.8833,0.2483,2.1158,0.46159998,-9.1135,3.5914998,jog
-2.056347,1.9370537,0.44355798,-0.39249998,2.5651999,1.5739,0.363,-9.1846,3.4176,jog
-2.1749945,3.295932,-0.12527974,-0.048699997,5.8973,1.5034,0.2154,-9.2315,3.3018,jog
-0.9287595,0.18565068,-1.1835601,-0.9341,9.340199,-0.6049,0.0221,-9.2617,3.2233,jog
-1.645828,0.42823398,-1.4894465,-1.2404,8.6719,-2.5758,-0.20109999,-9.2799,3.1641998,jog
-2.9322927,1.385582,-1.6372933,5.8603997,2.0493,0.6534,-0.48639998,-9.316,3.024,jog
-3.5499647,1.7628872,-1.8706439,-4.113,-11.1574,1.8179,-0.6235,-9.3384,2.9284,jog
-3.507466,1.0644239,-1.5260286,0.36479998,-0.76769996,-9.3836,-0.5414,-9.235,3.2544,jog
-2.6745775,1.3140934,-0.50867623,4.7195,4.3377,-3.8002,-0.72819996,-9.2606,3.1432,jog
-1.604167,0.6051929,-0.525763,4.14,2.2745,-10.7388,-0.9234,-9.374499,2.7268,jog
-1.1365758,0.70921457,-1.2139812,1.9741,-6.1945996,-5.6707,-1.0620999,-9.4861,2.2482,jog
-0.7550643,0.92437875,-1.3700311,-1.52,-11.613,-1.4271,-0.8433,-9.5496,2.0646,jog
0.090826936,0.29019588,-0.9048834,-0.71209997,-8.802199,-3.2882,-0.5725,-9.6342,1.7386999,jog
0.81705844,-1.2104033,-0.6861762,-1.2355,-4.1521,-2.576,-0.2942,-9.734,1.1539999,jog
1.5647401,-1.549224,-0.21121974,-9.5603,-10.186999,2.3923,0.0773,-9.7987995,0.3829,jog
1.8043039,-0.65524894,0.3946713,-14.787299,-17.376299,9.2062,0.3421,-9.7979,-0.2331,jog
2.2133915,-0.8206189,0.551559,-3.6481,-9.7669,10.9739,0.4511,-9.767799,-0.74549997,jog
2.9834135,-1.874344,0.17823303,1.9882,-0.29799998,12.827499,0.5614,-9.734099,-1.0497,jog
3.7503636,-2.4775298,0.028710665,-1.2125,3.4745,9.3963995,0.81049997,-9.691899,-1.2569,jog
3.8717163,-1.1299785,0.01633628,-3.6360998,4.9003997,6.7054996,1.0962,-9.6469,-1.3805,jog
3.9288583,0.784159,-0.24940754,-7.1187,8.3543,4.6656,1.2739999,-9.6292,-1.351,jog
3.824732,0.30291936,0.6675884,-11.5188,8.545199,8.132999,1.3689,-9.633699,-1.2192999,jog
3.329041,0.48357838,1.3569062,-10.0475,7.3199,-0.6742,1.3686,-9.6637,-0.9536,jog
3.5381663,-0.2006605,0.8680744,-2.1376998,7.0659,0.2232,1.2746999,-9.703899,-0.61539996,jog
3.3399842,-1.4837917,1.3348453,6.0232997,7.3434997,2.1698,1.155,-9.7362995,-0.1986,jog
2.772316,-2.799002,1.82633,7.4343996,4.8311996,5.4435,1.1169,-9.7345,0.40109998,jog
2.01966,-3.5161753,1.8782011,5.1211,2.03,4.5961,1.1452,-9.6792,1.0818,jog
1.0654188,-3.710605,1.7181544,-2.1488,-7.2869,0.959,1.1681,-9.5805,1.7377,jog
0.09869837,-3.8832355,1.6976643,-7.523,-18.493,-2.6653,1.1781,-9.406899,2.5084,jog
-0.78929025,-2.704632,1.4105576,-2.4933,-18.1104,1.2300999,1.0321,-9.201099,3.2317998,jog
-1.9025486,-0.69834113,1.1689168,-2.8253,-16.106699,1.2398,0.7463,-8.9883995,3.8497,jog
-3.1297767,0.9095783,0.68642056,-2.2424,-15.3313,-0.6805,0.60469997,-8.7046995,4.4757,jog
-3.9798045,2.629513,0.29649654,-1.2801,-13.2644,-2.2524,0.5053,-8.3689995,5.0866,jog
-4.0182366,3.629604,0.13182472,1.8182,-7.7943997,-2.7475,0.496,-8.1216,5.4737,jog
-3.3792193,3.355064,-0.13894565,1.8643999,-3.6287,-7.7686,0.597,-7.8940997,5.7876,jog
-2.271162,2.3092103,-0.23931955,1.8184999,1.6935999,-7.6878996,0.741,-7.8030996,5.8933,jog
-0.16783085,-0.9307492,0.17926277,2.4250998,7.6826997,-3.9808,0.9287,-7.8199997,5.8441,jog
1.1680093,-2.0884783,0.69303536,4.7602997,11.448899,-5.2655997,1.0157,-7.9382,5.6677,jog
1.6593543,2.8214993,1.1129615,4.8356,14.2036,-6.4930997,0.8914,-8.1922,5.3163,jog
-0.21383774,6.420787,0.92996377,3.6497,12.4206,-5.0566,0.7044,-8.4882,4.8605,jog
2.2972023,-2.633562,-0.57375956,2.4666,10.856299,-3.3769,0.387,-8.885099,4.132,jog
0.15838863,1.2767433,-0.6846927,0.6586,7.7490997,-1.2215999,0.116,-9.1613,3.4966998,jog
-2.949362,2.5979226,0.11164871,-0.4473,3.6882,0.3926,-0.072399996,-9.3761,2.8729,jog
-4.0439105,2.7221203,0.16474162,-0.57519996,-1.5159999,4.2764997,-0.1504,-9.496699,2.441,jog
-1.3014746,-1.407992,-2.2546337,-4.8216,-2.1957,9.7845,-0.14039999,-9.5036,2.4148998,jog
-3.5109043,0.43870595,-2.2347195,-8.5596,6.7443,7.5519,-0.1682,-9.4411,2.6469,jog
-4.1636577,0.8257327,-1.6798968,7.1835,6.3771,-20.1693,-0.57379997,-9.328899,2.9684,jog
-3.2103586,0.1786519,-0.88613856,11.7062,-13.072,-7.5548997,-1.066,-9.3263,2.8379,jog
-2.258264,0.78494436,-0.63002896,-4.1837997,-9.5152,-2.7336,-0.79789996,-9.1958,3.3121,jog
-1.1677998,1.2713677,-1.0545628,-6.5871997,0.8804,-10.2139,-0.7579,-9.1964,3.3198,jog
-0.26434755,0.79197806,-1.2799371,3.5941,0.0378,-9.7857,-0.93649995,-9.3737,2.725,jog
0.41647047,0.33889058,-1.3884792,6.9575996,-11.2217,-4.0278997,-1.0933,-9.558499,1.8999,jog
0.6243217,0.38601446,-0.8050157,-7.1165,-14.7674,-3.3820999,-0.562,-9.6511,1.6463,jog
0.9945235,0.4328242,-0.11499974,-7.5736,-9.7052,-0.93729997,-0.18339999,-9.7511,1.0256,jog
1.0818423,-0.2832495,0.4972443,-6.2819,-12.761499,6.4223,0.1331,-9.8035,0.2069,jog
1.736812,-1.2662015,0.53354716,-0.2661,-10.5266,14.5545,0.3053,-9.7927,-0.42319998,jog
2.785563,-1.9110134,0.3357839,2.093,-3.3425,12.234699,0.43699998,-9.7591,-0.85899997,jog
3.5549564,-2.1354976,0.26197392,1.1582,3.9784,8.8874,0.66569996,-9.7251,-1.0715,jog
3.6116273,-1.1904193,-0.016318828,-4.7837996,8.8461,5.4923997,0.9298,-9.6992,-1.1087999,jog
3.4950044,-0.20469221,0.4851666,-9.627299,11.2971,7.0792,1.2033,-9.679,-1.0187,jog
2.6842291,0.46682322,1.1022103,-11.0286,8.9148,3.7261,1.3787999,-9.6699,-0.8724,jog
3.3108895,1.2300383,1.2904615,-6.9508996,7.1517,-1.5299,1.4003999,-9.6818,-0.6863,jog
3.4879184,-0.51251596,1.1087029,-1.512,7.0411997,1.9627,1.2961999,-9.7086,-0.48189998,jog
2.749103,-1.8081262,0.7663915,1.5558,6.0955,3.2816,1.1802,-9.7338,-0.17289999,jog
2.282943,-2.0618272,0.9668949,3.6318998,4.4027,3.8878999,1.1144,-9.7375,0.32889998,jog
1.6773138,-2.6179938,1.0744945,1.3730999,-1.5316,3.0142999,1.0882,-9.696899,0.9769,jog
0.8128522,-2.9892428,0.85329145,-2.0607998,-13.404799,1.7903,1.1193,-9.6015,1.6516999,jog
-0.039095376,-2.9055195,1.0697646,-0.9644,-20.8254,2.2946,1.0232999,-9.457399,2.3831,jog
-0.9157917,-1.8213732,1.0241243,1.2576,-16.2365,-0.1802,0.81149995,-9.3489,2.8476,jog
-2.207283,0.37732273,0.79813904,3.7933998,-14.9585,-3.8701,0.49199998,-9.156,3.4778,jog
-3.3959396,2.4169319,0.46060985,4.6141,-14.5962,-1.9465,0.3284,-8.900499,4.104,jog
-3.5599132,2.9749835,-0.06396632,-1.2702,-11.858,-0.1127,0.3484,-8.6672,4.5747,jog
-2.5367312,2.0339892,-0.45790458,-2.8969998,-5.2033,-5.0775,0.37669998,-8.4572,4.95,jog
-1.1140437,-0.095277525,-0.2517114,-2.8425,-0.585,-5.7924,0.4693,-8.2801,5.2334,jog
0.9922895,-2.6718547,0.40617302,0.63119996,4.0347,-8.5693,0.624,-8.212299,5.3233,jog
2.1221633,-1.600816,0.93584555,4.1296997,9.7424,-7.0996,0.7539,-8.2322,5.2755,jog
2.1257238,6.4913855,1.0686127,4.4063,14.404099,-7.3993998,0.7715,-8.343599,5.0948997,jog
0.49755847,3.1853306,-0.033684853,3.7949,15.868199,-7.9421997,0.5984,-8.572,4.7256,jog
1.7683676,-4.554262,-0.6530673,2.0509,12.2127,-6.1245,0.3026,-8.8785,4.1533,jog
-0.50818753,1.3607111,-1.262606,2.7291,6.8528,-2.1620998,0.0657,-9.177,3.4566,jog
-4.7670703,3.459487,0.91966635,-0.2974,1.0189999,0.5153,0.0229,-9.3252,3.0346,jog
-1.7148558,-0.539394,0.18521434,-0.43809998,-2.9169998,11.8838,0.0753,-9.3902,2.8260999,jog
-2.5462084,-0.10437069,-1.6745212,-6.2917,0.00049999997,23.961699,0.1626,-9.3266,3.0261,jog
-3.9466608,-0.5885774,-1.7862048,-5.9811,7.1755,0.1707,0.0971,-9.2055,3.3792,jog
-4.311801,0.58070594,-1.8560355,17.0648,0.20539999,-18.449799,-0.6289,-9.0314,3.7691998,jog
-3.6606536,0.81824523,-1.1917806,12.2877,-11.569799,-9.528,-0.863,-8.994599,3.8107,jog
-2.4521875,1.1222817,-1.1504512,-6.1296997,-2.9603999,-6.4907,-0.4308,-8.8762,4.147,jog
-1.0485414,1.4778924,-1.384081,-15.5209,-5.8443,-36.3544,-0.30699998,-8.934199,4.0317,jog
0.12002629,1.0087829,-1.8767525,5.9792,-8.4032,11.768,-0.6836,-9.2388,3.2164998,jog
0.792938,0.8828748,-1.5634136,5.4014997,-13.3398,-9.7059,-0.6845,-9.342899,2.8999999,jog
1.2320977,0.6080727,-0.6514092,2.5101,-8.546599,-3.2394,-0.36249998,-9.497499,2.4155998,jog
1.5423998,0.27523842,0.28323203,-2.3385,-7.2503996,-0.3802,0.0045,-9.6659,1.655,jog
1.4619751,-0.84533274,0.7220951,-4.9995,-13.5241995,7.4044,0.35119998,-9.7664995,0.8134,jog
2.0247738,-2.1077993,0.52981216,-0.7668,-10.7664995,16.5913,0.6001,-9.788199,0.0308,jog
2.6721864,-2.720916,0.21692698,2.4002,-2.1199,14.686299,0.80649996,-9.765699,-0.38819999,jog
3.1683834,-2.5464702,-0.0076096356,1.3613,5.5866,6.8097997,1.1197,-9.724999,-0.5826,jog
3.0810297,-1.4436141,-0.63224554,-8.5949,5.3132997,6.7702,1.4949,-9.6772995,-0.53319997,jog
3.2315295,-0.5261295,-0.6138323,-13.4621,9.5007,5.3999,1.7725999,-9.638,-0.3691,jog
2.2315605,-0.40149555,1.0844079,-15.225499,9.493,-0.92029995,1.8982999,-9.6205,-0.109299995,jog
2.1740694,1.5721751,1.8969635,-7.4596,8.012199,-4.483,1.8404,-9.6303,0.19749999,jog
2.680686,0.5098107,1.7297086,0.2967,7.7346997,-0.0079,1.7038,-9.646999,0.44919997,jog
2.2389083,-1.4579782,1.8211987,4.1314,7.7084,1.9268999,1.625,-9.6403,0.7698,jog
1.5724893,-2.788338,1.7770244,5.4525,5.8431,3.1353,1.6376,-9.5893,1.2384,jog
1.464401,-2.3997405,1.6346928,3.4136999,2.6404,1.9896,1.7053,-9.505,1.7074,jog
0.9309586,-1.8714817,0.91322607,-6.5966997,-12.135099,-0.6002,1.8797,-9.361,2.2379,jog
0.1272694,-1.4694974,0.6278822,-7.9795,-27.3359,2.2138999,2.0170999,-9.1742,2.8167999,jog
-1.0576695,-0.9904394,0.70820224,-0.5554,-18.081999,1.0572,1.8400999,-9.0823,3.2085998,jog
-2.0998755,-0.26525515,0.5559746,3.3307,-14.442599,-2.9064,1.3862,-8.9952,3.6517,jog
-2.7111073,0.42633158,0.016179202,6.658,-15.3923,-5.3750997,1.0009,-8.8104,4.1885,jog
-2.6163008,0.2497217,-0.8694183,3.9492998,-10.5056,-1.9648,0.8264,-8.6663,4.5146,jog
-1.4959915,-1.0258696,-1.240039,1.1162,-3.786,-2.5416,0.77639997,-8.5507,4.7383,jog
0.03031637,-2.6634247,-0.9220749,2.1245,1.3055999,-5.5663,0.7292,-8.434999,4.9484997,jog
2.2089934,-3.657896,-0.36730453,3.3276,4.2676997,-7.9867997,0.7617,-8.3571,5.0743,jog
2.7462757,-0.63868576,0.5771106,3.1574,8.757999,-10.1004,0.80439997,-8.3559,5.0696,jog
1.005746,5.394394,0.8770978,1.8651999,13.985499,-8.5211,0.78239995,-8.4741,4.8729997,jog
3.4110715,-3.6053267,-0.2679255,1.7406,16.34,-6.2418,0.71099997,-8.681,4.506,jog
1.9536692,-0.11395255,-1.5224333,2.3493,12.1796,-3.6106,0.67109996,-8.914,4.0322,jog
-1.5772017,0.94092447,0.030962141,0.7019,7.0611997,-0.110199995,0.80829996,-9.1009,3.5621,jog
-0.8354542,2.19154,0.90324277,-4.1148,1.5799999,8.0299,1.1042,-9.1800995,3.2673,jog
-2.2194655,-3.0610807,-0.34876913,-4.4941,-1.8088,17.1048,1.4442999,-9.1549,3.2047,jog
-2.6277328,-1.1520569,-0.62662554,-7.8563,0.8879,16.763199,1.786,-8.9784,3.5168998,jog
-2.5146005,-3.409431,-0.8846376,-0.4791,1.2319,-6.3792,1.7342999,-8.8124,3.9373,jog
-3.4441628,-2.1391802,0.069115035,18.771,-17.192999,-5.1317997,1.1364,-8.7553,4.2689,jog
-2.9571812,-2.1759195,0.239337,2.817,-6.1952,0.8912,1.5468999,-8.406799,4.8064,jog
-1.9650139,-1.6986766,-0.29530972,-17.2771,0.5092,-4.9274,1.7825999,-8.1879,5.0941,jog
-0.8122413,-0.9236108,-0.9340653,-12.3115,1.0812,-26.2323,1.6811,-8.347899,4.8636,jog
0.32567844,-0.87166977,-1.5790517,0.29009998,-16.8625,3.4891999,1.2788,-8.467999,4.7777,jog
0.92114985,-0.3859621,-1.6463691,1.0955,-16.5686,-16.679499,1.5817,-8.644199,4.3525,jog
1.3459804,-0.6221575,-1.1107625,-1.8514999,-8.8103,-3.3490999,1.7828,-8.841599,3.8493,jog
1.8799988,-0.91378456,-0.5474574,-4.9353,-8.0556,0.27969998,2.1796,-8.9882,3.2603998,jog
2.3340986,-1.3321749,-0.13039355,0.1551,-7.4406996,7.2576,2.2965,-9.210899,2.4607,jog
2.6139622,-1.9791336,0.14887658,3.6543,-6.0092998,12.5331,2.3374999,-9.337999,1.8728,jog
3.2235358,-2.75961,0.1727527,5.3903,-0.3872,9.3661995,2.4450998,-9.3899,1.421,jog
3.4325216,-3.443744,0.05466371,0.1241,4.5401998,6.7623997,2.6411998,-9.3651,1.2200999,jog
3.5938423,-2.6334574,-0.54784137,-4.8656,6.3672,4.2999,2.9533,-9.269899,1.231,jog
3.6690836,-1.5491368,-0.13191198,-9.1973,6.9742,3.1892,3.2937,-9.1317,1.3903999,jog
2.8715553,-0.2441192,2.191418,-11.420799,7.5586996,4.0663,3.4873,-9.029699,1.5724,jog
1.7026559,1.7800089,2.7392592,-11.446899,6.0357,-2.3651,3.6114,-8.9286995,1.8453,jog
1.7629222,-0.7011162,2.5674665,-6.6833,5.8269997,-2.7317,3.6824,-8.8278,2.1629,jog
1.7039475,-2.5673618,2.9510202,-0.97749996,6.3171,-3.1223998,3.7429,-8.7197,2.4751,jog
1.0407747,-4.823846,2.7298172,0.575,4.2809997,-2.2493,3.8672998,-8.5469,2.8573,jog
0.92703164,-5.3476887,2.2787716,-3.8535998,-2.1942,1.12,4.0399,-8.3674,3.136,jog
0.43683845,-4.843882,2.0497496,-13.223,-19.6968,3.1396,4.2989,-8.0854,3.5091999,jog
-0.24377014,-4.1981974,1.9095647,-7.4196997,-33.2669,1.1119,4.4286,-7.8032,3.958,jog
-1.2593946,-3.3769853,2.0244248,-1.8059,-18.3116,-4.1491,4.1006,-7.7544,4.3844,jog
-2.2495723,-2.6977904,2.0592616,-5.219,-12.214499,-5.2064,3.5029,-7.8106,4.7847,jog
-3.034988,-1.8662806,1.7240188,-3.9626,-9.8894,-7.9481997,3.129,-7.8114996,5.0357,jog
-3.1774592,-1.7158855,0.42074654,-2.695,-7.8304,-8.840799,2.9401999,-7.8209,5.1338997,jog
-1.6312546,-2.652953,-0.16235052,-1.4133999,-5.3673,-7.0594997,2.9923,-7.8813996,5.0099,jog
1.2326213,-6.7375293,0.018692477,1.8755,-2.8379,-9.672,3.165,-7.9395,4.8079,jog
3.9695768,-8.290471,-0.2706133,2.3471,1.2486,-10.2772,3.2719998,-8.025,4.5892997,jog
3.2429264,-1.924784,0.38128462,0.7625,5.3519,-11.8821,3.3267999,-8.1762,4.2721,jog
0.7603876,6.2667093,0.63273424,-0.57019997,7.3265,-10.5479,3.2572,-8.415,3.8402,jog
2.2206,-5.2577868,-0.5739166,2.6274998,9.9838,-8.451099,3.0895998,-8.7088995,3.2828999,jog
3.8046083,-1.1967374,-3.2967873,7.6927,7.7976,-5.2222,2.8885999,-8.9939995,2.6332,jog
-0.77606064,1.3316687,0.22202334,5.5105,2.983,-0.47599998,2.8839,-9.1807995,1.8880999,jog
-0.60540235,0.25340435,1.7793632,1.3786,0.24049999,13.506,2.9852998,-9.2234,1.4785,jog
0.46912706,-3.991603,0.75239396,0.8278,2.9252,27.5957,3.1634,-9.1916,1.2946,jog
-2.0616527,-3.2048433,0.028099801,-4.4189997,10.6725,19.3211,3.4383,-9.064199,1.4786999,jog
-2.1648366,-3.3702657,-0.2377313,1.1482999,12.1572,-2.4777,3.4313998,-8.9798,1.9382999,jog
-2.797239,-3.3539293,0.12712978,24.1759,-16.6574,-9.566,3.0375,-8.986899,2.4856,jog
-2.9962068,-2.5513747,0.53354716,-8.3242,-24.1906,9.603,3.4011998,-8.8380995,2.5472999,jog
-1.9428133,-2.2866955,0.04790929,-25.019,-8.3909,-34.4188,4.0327997,-8.3783,3.1159,jog
-1.0290112,-2.2346323,-0.6156125,-15.9893,3.3855999,-3.8581,3.9074998,-8.4459,3.0930998,jog
-0.6125582,-1.3274975,-0.9512743,1.5974,-7.7915998,-14.700299,3.5509999,-8.634399,3.0009,jog
0.28159142,-0.8274955,-1.1138517,2.8743,-16.8828,0.7154,3.6471,-8.6634,2.7951999,jog
1.2773367,-1.0980738,-0.8500103,-2.008,-10.498799,-7.72,3.783,-8.7613,2.2577,jog
2.5184927,-2.3344476,-0.45048693,-3.8567,-6.5228,-2.5024998,3.9645998,-8.8343,1.5511999,jog
3.1865697,-2.4665515,0.29494318,-1.3439,-7.8427997,5.6078997,4.0113,-8.906799,0.86429995,jog
3.3403683,-1.9476652,0.80693555,3.3411,-10.063,9.9542,3.9352999,-8.9814,0.127,jog
3.307137,-2.3041487,0.92949253,3.6850998,-6.0315,11.960899,3.915,-8.9824,-0.3988,jog
3.732858,-3.1383638,0.92439616,0.39909998,0.1082,11.7886,3.9940999,-8.924399,-0.75619996,jog
3.7324564,-2.9130418,0.7827104,-6.969,3.9457998,7.8626,4.1349,-8.8393,-0.96849996,jog
4.01691,-2.366457,0.9233839,-11.791599,5.7040997,6.5052,4.3090997,-8.754,-0.9841,jog
3.9619498,-1.5830137,2.146371,-15.6502,7.0787997,4.9707,4.4314,-8.706699,-0.8519,jog
3.0393164,0.37765434,2.9009817,-17.5609,6.1576,3.636,4.469,-8.7073,-0.6155,jog
2.9060256,-0.6045995,2.360872,-10.1946,5.4702997,-1.4447,4.389,-8.7654,-0.2713,jog
3.2033598,-3.4938874,2.2435334,-1.9633,5.2233,-3.5674,4.2384,-8.842,0.1547,jog
2.8708572,-4.248428,2.506799,1.7799,5.3677998,-1.5659,4.0843,-8.8982,0.55579996,jog
2.1724637,-5.1749535,2.338811,-0.8534,1.8073,-0.183,3.9522998,-8.9171,1.0166,jog
1.9317653,-6.3911514,2.290675,-6.4156,-8.4559,3.0654,3.8855,-8.8919,1.4161999,jog
1.7509317,-5.976496,1.9399683,-7.4371,-20.070599,4.7406,3.7889998,-8.8197,2.0061998,jog
0.38238418,-2.6548553,1.5175638,-2.0658998,-20.8755,3.2877,3.5075,-8.7993,2.5372999,jog
-1.3201147,-0.37329102,1.3170254,-0.5959,-14.5826,-1.1029999,2.9691,-8.816,3.1035,jog
-2.758144,1.2643514,1.056151,-5.7974997,-13.2134,3.5735998,2.5514998,-8.7436,3.6341999,jog
-3.857579,2.8953965,0.76911426,-5.0719,-12.2543,1.3212,2.4338999,-8.623899,3.9840999,jog
-4.027958,3.1827126,0.536776,-0.29999998,-10.234799,-6.2102,2.3495998,-8.5056,4.2783,jog
-3.470465,2.2437778,0.22008602,1.989,-5.4673,-10.477799,2.4043,-8.418799,4.4172997,jog
-2.1428628,1.01641,0.19264944,3.5166,2.9819999,-6.8603997,2.5634,-8.3658,4.4284,jog
0.5578072,-1.5545822,0.5147151,7.8057,9.7344,-4.7406,2.7658,-8.3124,4.4072,jog
1.5209323,1.7008408,1.1538023,7.3964,11.880799,-6.4579997,2.7436,-8.3602,4.3299,jog
-1.5650891,3.0782547,0.83140504,5.9206,12.8046,-6.2888,2.5523,-8.5387,4.0920997,jog
0.9894097,-4.5471587,0.008342674,2.6323,12.4890995,-5.5332,2.271,-8.8018,3.6797,jog
-2.3619716,2.882551,-0.7764097,0.054199997,11.2421,-2.9101,1.9365,-9.0945,3.116,jog
-1.7730626,0.3206519,-0.21266837,-2.5412,7.7103996,-0.5413,1.6586,-9.3383,2.4928,jog
-2.3324406,0.3791204,-0.06747443,-4.4298997,3.4563,3.7623,1.5173999,-9.4972,1.9157,jog
-2.2624354,-0.5603903,-1.8352312,-4.1900997,0.1029,9.8716,1.4442999,-9.576099,1.5432,jog
-4.086828,-0.4882035,-2.0327327,-5.9533,5.1789,2.2319999,1.3931999,-9.5723,1.6121,jog
-4.3070884,0.44535565,-0.63702774,7.3224998,10.36,-6.1387,1.1111,-9.546,1.9512999,jog
-2.4992592,0.76790994,-0.38086575,3.7975998,-7.3006997,0.14209999,0.8114,-9.6254,1.6916,jog
-1.5795928,0.42926374,-0.34475487,0.99289995,-11.2879,-22.251299,0.9683,-9.5904,1.8044,jog
-0.75330156,1.2415226,-0.5337042,-5.0183997,-10.6936,-3.8525,1.0173,-9.6453,1.4498999,jog
0.18835594,1.3634337,-0.70879567,1.9088999,-3.4022,0.015199999,1.0526,-9.6896,1.083,jog
0.9512044,-0.27698374,-0.8303928,6.8952,-6.6419,-6.7749,1.0579,-9.7253,0.685,jog
1.8425964,-0.66086894,-0.15570082,-2.6643,-12.8938,-3.5284998,1.4188,-9.7006,0.23349999,jog
2.0125916,-0.41343358,0.8108276,-10.702399,-15.701799,9.1623,1.847,-9.609099,-0.6502,jog
1.9181517,-0.93568844,1.3867513,-8.229,-18.1646,13.523299,1.9625,-9.5096,-1.3729,jog
2.9717896,-1.8976965,1.2443324,-0.3208,-10.3737,14.2748995,2.0565999,-9.415999,-1.8106999,jog
3.6760473,-2.5510604,0.9407325,0.4155,-0.6789,17.252699,2.1439,-9.3336,-2.1113,jog
3.885871,-1.7648071,0.64793605,-0.63159996,6.5392,7.7134,2.2791,-9.285,-2.1825,jog
3.8702152,-0.8406204,0.8265181,-8.026199,9.9675,5.5386996,2.4659,-9.261499,-2.077,jog
3.6710906,-0.24026202,1.3406223,-15.0496,9.2499,9.5282,2.6049,-9.2597,-1.9083999,jog
3.8956273,0.31536356,1.2093037,-15.756499,7.073,-0.348,2.6058,-9.3188,-1.5936999,jog
4.1964345,0.32822663,1.3832781,-6.3206,7.2416997,-0.8578,2.4371998,-9.418799,-1.2308999,jog
3.4394157,0.3363424,1.8384775,2.5458999,6.4356,2.7247,2.1218998,-9.5345,-0.8713,jog
2.886827,-1.0791196,2.1704566,4.7377996,4.2999997,4.2644997,1.8815,-9.6152,-0.42029998,jog
2.801742,-3.4833806,1.9305261,3.2705998,-1.2867,4.9143,1.6913999,-9.657499,0.2047,jog
2.2555938,-5.1857395,1.7264796,-0.0042,-12.6449995,4.0478997,1.583,-9.6356,0.9044,jog
1.3490697,-5.4924464,1.1555825,-0.13859999,-19.3184,2.2542,1.4429,-9.562099,1.6292,jog
-0.599189,-2.574483,0.8536056,0.24679999,-16.0264,3.0463,1.1947,-9.451099,2.3276,jog
-2.577031,-0.18341665,0.34327134,0.2622,-18.067999,3.0455,0.92429996,-9.2434,3.1424,jog
-4.10484,2.8108876,-0.06536258,1.7285,-19.7748,-0.6737,0.6741,-8.9978,3.8411999,jog
-4.837948,4.1547737,-0.12644911,0.80979997,-14.777699,-4.125,0.3178,-8.7287,4.4584,jog
-4.2756553,3.6719809,-0.021083577,-0.37739998,-6.7272997,-8.3765,0.044,-8.4630995,4.954,jog
-3.014393,2.3462112,0.009372418,0.044999998,0.1907,-12.2831,0.0824,-8.1733,5.4184,jog
-1.3370444,-0.24637067,0.09370673,1.6436,9.7659,-8.2434,0.4157,-7.9027,5.7917,jog
0.73607516,-1.8460871,0.49853584,6.3566,15.254,-7.7078,0.83159995,-7.7714996,5.923,jog
1.0327985,1.6821833,1.355318,8.0513,16.1126,-9.6975,1.0001,-7.8553996,5.7847,jog
-1.4256548,7.391609,1.7329723,4.6758,15.3741,-8.1824,0.9629,-8.176,5.3287,jog
1.4893243,-0.25295058,0.26797786,0.1797,11.762199,-9.170899,0.6929,-8.5849,4.6892,jog
0.8813738,-1.1730009,-0.70083696,-1.0857999,7.6162,-4.6342998,0.3895,-8.9597,3.9675,jog
-1.3607285,0.953421,-0.82581997,-0.0907,3.6171,-0.7967,0.13,-9.265699,3.2091,jog
-6.062349,4.251884,0.19627973,0.51879996,-1.1005,4.4982,-0.0089,-9.4415,2.6506999,jog
-1.3482668,-0.7940375,-1.0933964,-3.5553,-4.6721997,12.7893,-0.0142,-9.5081,2.4011,jog
-3.7312522,0.82337654,-1.976917,-10.5828,0.6738,12.723,-0.018099999,-9.4704,2.5458,jog
-4.069305,-0.28759536,-1.9265119,0.3689,9.000899,-19.9174,-0.39839998,-9.403,2.7558,jog
-3.5628803,-0.53148764,-1.1146895,12.6292,-5.8715997,-2.0382,-1.0378,-9.4463,2.4206998,jog
-2.84178,1.9123747,-0.7402116,11.273399,-7.0916996,-8.4451,-1.0745,-9.3638,2.7082,jog
-1.8464885,1.5907978,-0.90422016,4.1816,-0.7242,0.90709996,-0.8768,-9.327499,2.8978,jog
-0.4588994,1.8262427,-1.2053069,-2.2661,-4.4501,-27.5458,-0.7739,-9.4164,2.6271,jog
0.3882485,1.350466,-1.2731304,2.5019,-10.5149,2.254,-0.98179996,-9.6572,1.3938999,jog
0.9744348,0.8951968,-0.34609878,-4.3698,-15.9338,-4.6766,-0.7492,-9.7105,1.1462,jog
1.2086929,1.5627679,0.6847625,-3.3604999,-12.195499,-4.3701,-0.3757,-9.790899,0.40829998,jog
1.4407344,0.4423188,1.2144699,-1.6284,-15.3684,13.5792,0.0398,-9.7954,-0.46769997,jog
2.5616546,-1.2170705,0.92151636,0.997,-13.9109,15.6473,0.2288,-9.7427,-1.0943,jog
3.1093564,-1.3948846,0.62812656,2.4480999,-3.8528,14.8405,0.4251,-9.6607,-1.6309999,jog
3.6987891,-1.5000057,0.66038024,1.2159,4.4463,12.1847,0.657,-9.585,-1.9662,jog
3.6802886,-0.9856398,0.39671335,-5.9522,8.9692,4.7083,0.9607,-9.5478,-2.0212998,jog
3.4025195,1.1092266,0.10826277,-14.799,10.202499,9.4452,1.2559999,-9.5357,-1.9137,jog
3.049928,-0.27787387,0.7958701,-15.738899,7.9863,1.8562,1.3622999,-9.5651,-1.6797,jog
3.2057335,0.7258126,0.6921103,-5.9733,7.5077,1.3029,1.2857,-9.616099,-1.4304,jog
3.770714,-0.051958453,0.7518529,2.901,8.0447,6.8556,1.0608,-9.6824,-1.1383,jog
3.223466,-1.4068924,1.2836548,2.7702,5.618,3.9649,0.85819995,-9.7466,-0.6601,jog
2.6578224,-2.8994458,1.5954229,2.9534,3.2482998,2.405,0.724,-9.7796,-0.070999995,jog
2.1988356,-3.3630052,1.2956451,5.4284,2.2358,3.8451,0.6026,-9.7673,0.6365,jog
1.6583071,-4.267295,0.9415353,1.9612,-8.2376995,5.9972,0.5394,-9.6888,1.4165,jog
0.6324724,-3.2254033,0.73412037,-0.1326,-25.0532,1.0387,0.4856,-9.583799,2.0209,jog
-1.1661767,-1.0221521,0.5838475,-1.5917,-21.9326,4.5267,0.3462,-9.4486,2.6027,jog
-2.9441783,0.96993184,0.344528,-0.6738,-17.065899,1.5956,0.17369999,-9.2649,3.2096,jog
-4.2796345,3.4255228,0.13391912,5.3932,-16.8333,-2.4886,0.0396,-8.9973,3.9008,jog
-4.670065,3.8779993,0.1725258,4.8754,-11.4560995,-1.3463,-0.070099995,-8.7259,4.4746,jog
-3.560751,2.740132,-0.1889668,1.9035,-3.6160998,-7.7091,-0.069699995,-8.446,4.9828997,jog
-1.9711574,1.3150532,-0.24445081,0.2562,2.779,-9.3748,0.0477,-8.2413,5.3149,jog
0.16870353,-0.893818,0.12449434,3.0537999,8.9765,-7.4607997,0.3588,-8.0645,5.5681,jog
1.1392287,-1.1224736,0.72474796,5.1931996,13.3453,-8.6396,0.6024,-8.0007,5.6387,jog
0.88135636,2.6796563,1.0929949,4.5662,15.5018,-9.2528,0.6214,-8.137,5.4379997,jog
-0.45526913,6.8573813,0.78267545,2.9492998,15.703899,-9.4123,0.46339998,-8.447,4.9600997,jog
3.7491417,-4.312377,-0.52094585,0.3085,11.4766,-8.2539,0.093499996,-8.8779,4.1646,jog
0.35695472,1.9136662,-1.597657,0.77739996,6.4305,-1.8706,-0.1988,-9.196,3.4004998,jog
-4.4444113,3.787312,0.29817206,-1.9043,1.462,3.4847,-0.3315,-9.4152,2.7228,jog
-3.755896,2.320799,0.67411596,-3.0886998,-2.6341,11.4467,-0.3533,-9.526,2.3021,jog
-2.0710776,-0.6482851,-1.9808614,-4.0364,-2.2595,10.196199,-0.3373,-9.5182,2.3365998,jog
-4.087456,-0.28740337,-2.0266764,-5.4542,7.3778996,5.8331,-0.4199,-9.4569,2.5613,jog
-4.4999647,-0.55262357,-1.8043214,10.8439,3.7424998,-18.8694,-0.80189997,-9.3911,2.708,jog
-3.96462,0.25991443,-1.0094635,19.094799,-19.011799,-14.056,-1.2565,-9.3979,2.5038,jog
-2.9020288,1.3538519,-0.86776024,2.6166,-0.2958,-16.8851,-0.871,-9.1675,3.3715,jog
-1.8953753,1.7390461,-1.019028,-12.191299,1.902,-20.9863,-0.724,-9.1687,3.4029999,jog
-0.7795862,1.5401134,-1.4085505,2.6905,-2.812,4.2859,-1.0037,-9.4265995,2.51,jog
0.23909265,0.84624034,-1.6860927,5.8104,-19.926899,-9.4227,-1.2307,-9.5714,1.7441,jog
1.2384508,0.85891145,-0.8229402,-4.4663,-15.379299,-4.3596,-0.82919997,-9.676499,1.3586999,jog
1.5894015,1.7804801,0.42832124,-3.1306999,-8.704599,0.2474,-0.429,-9.7808,0.5665,jog
1.712901,0.177116,1.1844852,-1.6518999,-14.2739,10.4428,-0.074,-9.8013,-0.3125,jog
2.734006,-2.0925624,0.8427148,2.099,-12.800099,16.494,0.127,-9.7452,-1.0878,jog
3.4980412,-2.5101848,0.5116433,4.0313997,-4.7538,15.5018,0.33249998,-9.6619,-1.645,jog
4.068834,-2.013883,0.5790828,4.834,5.7598996,8.9809,0.6184,-9.574699,-2.0279999,jog
3.8483987,-0.6830695,0.37775907,-5.0078,8.7708,7.7109,0.9184,-9.5259,-2.1406999,jog
3.5978043,1.4221815,-0.41551054,-15.4161,8.3614,13.1876,1.2749,-9.499,-2.0765998,jog
4.377024,-0.630186,-0.38362336,-17.234,6.7984,2.0627,1.4649,-9.5247,-1.8175,jog
3.4958944,-0.99708915,1.1331899,-6.7272,7.2847,-1.3231,1.4415,-9.5893,-1.4619,jog
3.3358479,1.3683032,1.2180828,1.9691,7.4096,3.3925998,1.2178999,-9.6651,-1.1273,jog
3.4414053,-0.19244,1.6127715,0.9047,5.2018,5.5273,1.0173,-9.7324,-0.6435,jog
2.8177817,-2.0869424,2.2823148,2.5704,3.4887998,4.5007,0.9011,-9.7651,-0.0093,jog
2.1914704,-4.1035657,2.0610592,7.817,5.6847997,4.8096,0.803,-9.7448,0.7507,jog
1.4703526,-4.8875327,1.5626107,5.1344,-0.17289999,3.7445,0.73969996,-9.653299,1.5608,jog
0.3540575,-3.7543602,0.8604822,-5.0095,-19.472399,-6.5358,0.7633,-9.5258,2.2013,jog
-1.4218324,-1.4477158,0.64236844,-3.3495,-35.5547,6.4874,0.8684,-9.2911,3.0152,jog
-3.133791,0.25195572,0.5739341,1.9113,-22.854,2.5168,0.7266,-9.0763,3.6416998,jog
-4.043631,1.8164514,0.08379326,3.8753,-17.2297,-1.548,0.4003,-8.8265,4.2546,jog
-3.8404224,2.4585755,-0.40111157,1.637,-11.1602,-4.1644,0.1379,-8.5217,4.8508997,jog
-2.769628,2.165046,-0.54927254,1.6068,-2.9921,-9.1531,-0.047599997,-8.207,5.3677,jog
-1.132806,0.9822364,0.1123643,1.5282999,4.2331,-9.6194,0.0602,-7.989,5.6868997,jog
0.44809583,-0.5042431,0.45247662,4.0529,10.5124,-7.8595,0.3796,-7.8254,5.8981,jog
1.0061997,0.7779107,0.8703084,5.8113,12.7912,-8.1887,0.7198,-7.7897997,5.9135,jog
-0.3693466,4.836761,1.1907684,5.2901,13.5956,-8.6248,0.7801,-7.947,5.6926,jog
-3.3976324,3.6321523,0.4866327,3.8809998,14.5039,-6.4423,0.6594,-8.2963,5.187,jog
4.8089056,-8.790612,-0.003996804,0.7748,9.3246,-2.7941,0.45099998,-8.726399,4.4515,jog
-0.56744146,5.6826696,-1.5825075,-0.70379996,4.5292,1.1263,0.3311,-9.0109,3.8553998,jog
-5.8174963,1.163768,0.51101494,-1.0594,1.1661,4.0401998,0.2749,-9.2076,3.3637,jog
-2.7528555,3.0470307,0.012793263,-0.0919,-1.1032,8.6483,0.19,-9.282,3.1588,jog
-2.464789,-0.11547098,-1.8602766,-4.9828997,2.7726,7.9981,0.1384,-9.2548,3.2401998,jog
-3.788778,-1.1065388,-1.4076604,-6.7219996,12.463699,-17.9107,-0.0739,-9.1883,3.4262998,jog
-3.6342468,-0.5817357,-1.2363389,14.2511,15.6087,-25.321,-0.6199,-9.2049,3.3246999,jog
-2.784987,0.4474675,-0.7818726,7.4388,-22.687199,12.1819,-0.92719996,-9.4001,2.6358,jog
-2.1756926,1.484001,-1.0872005,5.2762,-16.988499,-45.6745,-0.37289998,-9.097099,3.6432,jog
-1.3892472,1.8146362,-1.4295119,-4.9137,-1.0083,-14.4739,-0.48959997,-9.151299,3.4903998,jog
-0.5828701,1.4071717,-1.7980556,0.5359,4.5259,1.5899,-0.65349996,-9.488,2.3915,jog
-0.19966567,0.65167105,-1.416771,-2.4026,-17.648699,-15.8453,-0.7845,-9.6039,1.8218,jog
0.56115824,0.4707502,-0.5326221,-3.3904,-19.1386,-2.1329,-0.38509998,-9.7125,1.2993,jog
0.7526034,1.2391489,0.54857445,-0.2245,-12.338699,6.9707,-0.118599996,-9.785,0.6392,jog
1.3307961,-0.12440707,0.9784839,3.3641,-12.4555,13.9691,0.1269,-9.8055,-0.0731,jog
2.4800081,-2.0733638,0.4212352,4.1198997,-7.8492,15.5329,0.2832,-9.7831,-0.617,jog
3.4432902,-2.1995163,0.08545132,3.6576,-0.0681,9.7382,0.52,-9.7385,-1.0299,jog
4.1082783,-1.7452245,0.06627015,-1.3622,7.2293,1.9363999,0.87189996,-9.681,-1.2989,jog
3.624979,-0.46017352,-0.24504423,-11.2114,8.9467,4.659,1.2184,-9.6331,-1.3737999,jog
3.599183,1.639318,-0.6134658,-16.7973,7.6668997,11.3089,1.5087999,-9.589,-1.3944,jog
3.4332197,-0.97844905,0.3096214,-14.6957,5.9392,2.5763,1.6235,-9.587299,-1.272,jog
2.7523668,0.43353978,1.0864326,-2.1848,8.3083,1.8433,1.5473,-9.622399,-1.0882,jog
3.54054,0.33754668,1.1027688,4.8318,8.9409,4.532,1.3561,-9.6764,-0.83489996,jog
2.996713,-0.990422,1.5817745,2.6838,6.0505,4.9972997,1.2486,-9.7182,-0.4078,jog
2.00657,-2.8020563,2.0579875,2.8518999,4.4316998,3.6855998,1.2275,-9.7272,0.2076,jog
1.7426764,-3.1922944,1.9096869,5.9726996,4.9736,3.9016,1.2350999,-9.6807995,0.96239996,jog
0.9615019,-3.4943585,1.480301,0.66069996,-5.4273,3.4799,1.3005999,-9.566999,1.7175,jog
0.13020156,-2.9563782,1.17801,-7.0722,-26.717499,-3.5976999,1.3450999,-9.4199,2.3718998,jog
-0.9272934,-1.5923163,1.0315943,-3.9973,-28.874199,6.5256996,1.3397,-9.2441,2.9866,jog
-2.0865238,0.23771384,0.7830594,-1.0307,-17.6381,-0.8955,1.0895,-9.0751,3.5530999,jog
-3.126129,2.2610567,0.38571775,4.4367,-15.2352,-4.6698,0.8882,-8.8498,4.1305,jog
-3.3614867,3.0035372,0.13472196,1.6057,-11.099199,-0.8038,0.69879997,-8.6121,4.6382,jog
-2.5216517,2.1696014,-0.04003785,1.5677999,-3.9464998,-4.4153,0.6092,-8.4293995,4.9743,jog
-1.2994151,1.0003355,0.06558947,1.6509999,1.2103,-7.4765997,0.6142,-8.2907,5.2015,jog
-0.3270398,-0.42809436,0.37814304,3.1459,6.0325,-8.470699,0.7374,-8.2095995,5.3129997,jog
0.5343849,0.081698865,0.5742133,4.8087,9.7157,-8.3928995,0.8693,-8.2153,5.2841997,jog
0.5854707,3.4643738,1.0037738,4.9308,13.0842,-8.387,0.8649,-8.3182,5.1214,jog
-1.759606,4.1594687,1.2019908,4.1154,15.342799,-7.6369,0.7093,-8.537,4.7734,jog
4.3215747,-7.8845773,0.03694862,1.6898999,12.4425,-6.2176,0.43809998,-8.8239,4.2563,jog
0.8185594,4.436173,-1.2115203,1.413,8.0127,-2.0246,0.17559999,-9.0914,3.6720998,jog
-5.5069327,1.3417916,0.7711912,-0.41599998,3.9399998,1.7974999,0.0335,-9.264999,3.2136,jog
-2.5690722,2.0544271,0.083514005,-2.0579998,1.0588,7.3938,-0.0405,-9.3454,2.9717,jog
-2.4464455,-0.19167206,-1.9332314,-3.7875,2.3328,12.122399,-0.085999995,-9.3642,2.9111,jog
-3.713991,-0.51565754,-1.6076227,-8.9022,7.8500996,-3.1578,-0.1982,-9.3309,3.0107,jog
-3.7575018,-0.2536487,-1.3375156,7.5994997,9.0862,-28.311699,-0.6368,-9.2823,3.0988,jog
-2.6876152,0.56997216,-0.67247534,16.5616,-24.8392,3.2419,-1.0573,-9.3565,2.74,jog
-2.184297,1.566433,-0.6403264,1.0579,-13.202399,-38.0095,-0.5578,-9.078199,3.6667,jog
-1.7105274,1.9325856,-0.90924674,-5.3417997,-0.90639997,-19.048199,-0.67939997,-9.027699,3.7694,jog
-0.34637803,1.8066252,-1.0857344,6.055,3.0586,2.0444999,-0.88689995,-9.3446,2.8391,jog
0.17374752,1.4843153,-0.8899085,2.0579,-16.257,-11.4857,-1.0086,-9.4755,2.3164,jog
0.64812803,0.7864977,-0.2897421,-0.98649997,-16.4077,-5.0004997,-0.6315,-9.6093,1.8525,jog
1.0135127,1.0310009,0.5034751,-2.1368,-11.387899,4.0295,-0.3049,-9.735499,1.1385,jog
1.0058333,0.5832367,0.9908758,-0.5585,-12.5217,9.783999,-0.0396,-9.7982,0.405,jog
1.622493,-0.66645396,0.7902851,1.7102,-7.7493,13.6584,0.1039,-9.8045,-0.1742,jog
2.3648338,-1.5696269,0.44655994,2.0479,0.7563,12.2345,0.2271,-9.7883,-0.5548,jog
2.8748364,-1.4794981,0.33864623,-0.030499998,7.0021,6.0936,0.4326,-9.7578,-0.87649995,jog
2.8896718,-0.69294804,-0.06747443,-5.3104,9.4039,1.0459,0.70129997,-9.7373,-0.92819995,jog
2.9818602,0.8175122,-0.73382366,-9.7465,9.551,7.7314997,0.8813,-9.7275,-0.8767,jog
2.941735,-0.5634621,0.42915902,-11.9142,8.1538,4.0606,0.9504,-9.7326,-0.73609996,jog
2.0640788,0.95975655,1.809889,-6.7198,7.4302998,-0.3626,0.8652,-9.754499,-0.51989996,jog
2.8901255,1.7737432,1.7033715,1.0296999,7.3069,1.1381999,0.6766,-9.7782,-0.3144,jog
3.2226458,0.024521876,1.6164018,3.4517999,6.3311,2.1720998,0.5197,-9.7928,-0.0047999998,jog
2.1952925,-1.1513239,1.4941589,5.3368,5.7072,4.666,0.43919998,-9.786699,0.4432,jog
1.6941212,-1.2064763,1.2466189,7.0195,6.3061,4.0969,0.3942,-9.7483,0.9927,jog
1.2101763,-0.7011162,0.6760358,0.70269996,-2.1525,1.8446,0.42499998,-9.6742,1.5483999,jog
0.20155062,-0.6227858,0.4780806,-9.0097,-22.7298,-0.9913,0.5466,-9.543799,2.1878,jog
-0.7272962,-0.84922487,0.64015186,-1.3218,-26.9147,8.2105,0.498,-9.418799,2.6845999,jog
-1.6310625,-0.42144465,0.5029341,4.2802,-13.6296,-1.3406999,0.063999996,-9.2983,3.1157,jog
-2.8166647,1.2470552,0.16428784,11.3579,-13.7297,-4.189,-0.32549998,-9.1196995,3.5907998,jog
-3.637877,2.3823745,-0.2679604,11.4838,-11.994599,-2.8167,-0.618,-8.8543,4.17,jog
-3.2441132,1.6850456,-0.74570936,6.8644,-6.0811,0.7247,-0.7941,-8.618899,4.6099997,jog
-1.9910542,0.48301986,-0.8504291,2.7752,-1.9298999,-4.2118998,-0.8825,-8.455299,4.8886,jog
-0.48603928,-0.42605233,-0.08379326,1.9555999,0.163,-5.9280996,-0.9259,-8.3221,5.1043,jog
0.38449603,-0.11306243,0.81615084,3.3048,4.8308,-7.8462996,-0.9414,-8.2925,5.1495,jog
1.3269564,0.37922513,0.9502969,4.3055,10.914,-6.5253,-0.9614,-8.3545,5.0445,jog
1.9504578,2.7045097,0.95589936,4.5155997,15.634299,-5.5917997,-1.0048,-8.5048,4.7778,jog
-0.019949114,2.8881533,0.8199906,3.5326,14.506599,-5.3499,-1.1594,-8.7796,4.2124,jog
3.9119985,-4.5778766,-0.5029515,1.2149,9.4917,-2.3406,-1.2835,-9.0406,3.5762,jog
0.1081406,5.5899057,0.33981562,-1.6067,3.2988,2.072,-1.2566999,-9.271,2.9391,jog
-3.247761,2.4724684,1.5162199,-5.9853,-1.4748,6.3877997,-1.1244999,-9.4007,2.5556998,jog
-2.0767846,3.3625863,0.36753142,-0.78569996,0.248,7.0681,-1.0871999,-9.427,2.4736,jog
-2.1513627,1.3966473,-1.2356757,0.2349,5.9172,7.6796,-1.2350999,-9.3887,2.5486,jog
-2.3062606,0.9129468,-1.3336934,-1.6071,9.5181,-4.6496997,-1.4329,-9.2926,2.7863998,jog
-2.9745646,1.421274,-1.2402309,19.5861,0.057099998,-13.5822,-1.7673999,-9.1479,3.0595999,jog
-3.0238352,1.9220787,-1.033584,6.6703997,-35.287,-2.5719,-2.0907,-9.1174,2.9445,jog
-2.4597623,1.8706788,-0.8144404,-6.2682,-5.6709,-43.2905,-1.6457,-8.8428,3.9069998,jog
-1.9574566,2.7845156,-0.3623129,1.9473,8.2355995,-3.1381998,-2.0846,-8.823999,3.7364,jog
-0.89029247,3.330158,-0.013264502,8.6123,2.9531999,-5.9761996,-2.5224,-8.9744,3.044,jog
0.002635447,3.3321652,0.0591143,7.9529,-13.799,-6.2566,-2.7749999,-9.07,2.4908,jog
0.71059334,2.6179416,-0.052098077,2.5922,-13.5569,-3.3651998,-2.6118,-9.2337,2.0217,jog
1.0100919,2.4805667,0.37613592,0.0032,-5.2879,-2.9292,-2.396,-9.3828,1.5465,jog
1.1399966,2.0589125,0.84041095,-1.5019,-3.0089998,-2.582,-2.1755,-9.5238,0.856,jog
1.3060647,1.3988116,1.1741353,-1.4545,-6.2934,4.6401997,-2.017,-9.5933,0.26299998,jog
1.6343613,0.83966047,1.3527697,-2.1508,-9.1846,10.3439,-1.8599999,-9.6244,-0.2823,jog
2.1339967,0.509514,1.2427965,0.3378,-3.3488998,10.8689995,-1.7499,-9.615399,-0.8074,jog
2.6975634,0.016790068,0.9604023,3.2213,4.1679,6.9975996,-1.6915,-9.6008,-1.0646,jog
2.9450512,0.02883284,0.3186273,-0.5586,7.7258,5.4112,-1.6281999,-9.5989,-1.1747999,jog
3.5679417,0.32616714,-0.25097835,-5.0614,9.057899,4.7009997,-1.558,-9.616799,-1.1215999,jog
2.876512,-0.66284114,0.74178237,-5.7478,9.5383,3.1722999,-1.5777,-9.6265,-1.005,jog
1.9601793,2.7217362,1.1772245,-3.7315998,7.0999,3.3734,-1.7012,-9.6202,-0.853,jog
3.2540092,1.6282002,0.74597114,-0.5556,4.6059,3.4376,-1.9058,-9.5975,-0.6525,jog
3.4363961,0.5687155,0.42315507,3.1566,4.2146997,2.2563,-2.1562998,-9.559299,-0.3734,jog
3.3725696,-0.33930945,-0.14847516,7.2949,5.0681,2.0195,-2.3915,-9.5105,0.0103,jog
2.5453184,0.7670024,-1.0800272,9.093699,5.9003997,2.4778,-2.5918999,-9.440599,0.57199997,jog
1.5386125,0.31642818,-1.9194782,3.9506,-6.7106,5.4712996,-2.6462998,-9.382,1.0696,jog
0.758363,-0.58903116,-2.2955792,0.87899995,-32.7271,4.9533,-2.605,-9.2845,1.7838,jog
0.120741874,-0.62453115,-2.1895854,1.9192,-26.6017,4.2777,-2.7036998,-9.143499,2.2927,jog
-0.79616684,0.34503415,-1.788404,10.3828,-12.4258995,0.9898,-3.0474,-8.9819,2.4915,jog
-2.0753186,2.095233,-1.8789517,16.1154,-11.660299,-0.3478,-3.2687,-8.7571,2.9661,jog
-3.252264,3.7140083,-1.7474935,17.031,-7.9473996,5.0632997,-3.3899,-8.4786,3.5763,jog
-3.5668247,3.8158832,-1.1350051,11.1109,-1.5227,1.5926,-3.3441,-8.2544,4.1049,jog
-2.859181,2.452362,-0.49605748,7.6362996,-0.20879999,-5.9519,-3.2331,-8.1071,4.4711,jog
-1.6354084,1.2188681,0.010279989,3.9921,-0.4502,-8.656199,-2.9232,-8.0815,4.7237,jog
-1.0968696,1.5937124,0.6928957,2.2431998,1.4309,-6.756,-2.5374,-8.1289,4.8633,jog
-0.9426872,3.043959,1.3879207,2.638,5.2377996,-6.3438997,-2.1183,-8.219,4.9121,jog
-0.41505674,5.061647,1.1322125,4.7899,11.9706,-5.9972,-1.8283,-8.3813,4.7518,jog
4.269128,-1.4455515,-0.14205235,0.4184,11.308499,-7.0153,-1.7128999,-8.6116,4.3675,jog
-0.31183797,1.0003704,-0.8526457,-2.9183,6.7560997,-6.7366,-1.7005,-8.9626,3.5983999,jog
-3.992685,7.087084,-0.95148367,-4.6558,2.9792,-3.3574998,-1.7379999,-9.2064,2.8966,jog
-1.7613513,3.679346,-0.613396,-5.2879,1.3599,1.6827999,-1.7728,-9.3719,2.279,jog
-0.78569484,1.6599302,-1.0174745,-6.5856,1.8531,2.6404,-1.8284999,-9.443399,1.9097999,jog
-2.5982368,0.940715,-1.1857244,-6.1717997,4.6011,1.346,-2.0068,-9.455299,1.6546999,jog
-3.5476959,0.61189497,-1.5256621,8.7542,9.3543,1.3823999,-2.3602998,-9.422999,1.3436999,jog
-3.7262082,1.3824579,-1.5279485,13.5583,-2.7159998,-1.3823,-2.6924999,-9.3755,1.0097,jog
-3.537189,1.9039273,-1.3136569,10.851999,-2.1652,-3.7361,-2.6241999,-9.2595,1.8827,jog
-2.2955267,2.2977085,-1.3208477,1.9139999,-5.7091,-12.599999,-2.5024,-9.3146,1.7735,jog
-1.1045141,2.7406206,-0.90961325,-3.4949,-9.7512,-6.8452997,-2.4968998,-9.4599,0.6671,jog
0.33381167,3.4160457,-0.74282956,-6.0818,-13.570499,-4.3101997,-2.4106,-9.504499,0.1522,jog
1.3288587,2.3577828,-0.8795063,-3.7443,-12.0125,-4.4367,-2.218,-9.552199,-0.0743,jog
1.7124298,1.0045418,-0.46994734,0.4014,-7.5269,-3.2775,-1.9605999,-9.5856,-0.6647,jog
2.1279228,0.42282346,0.25832617,2.1083,-4.9014997,-0.78209996,-1.6867,-9.573,-1.2968,jog
1.7700605,0.13110913,0.96914643,5.5559,-8.4122,9.6989,-1.3488,-9.4946995,-2.0497,jog
1.9557811,-0.5058139,1.1161555,3.2747,-16.4753,20.4235,-1.0094,-9.3554,-2.7617998,jog
2.809631,-0.86144215,0.6266954,-1.8549,-12.0899,18.1717,-0.626,-9.2395,-3.2264,jog
3.574574,-0.79744095,0.26169467,-3.0196,1.1716,16.566,-0.2753,-9.1739,-3.4545,jog
3.5935457,-0.44432592,-0.33983305,-7.1341,8.3568,2.9119,0.1322,-9.2002,-3.3924,jog
3.499071,0.7332826,-0.22193606,-12.411099,11.823899,4.8268,0.4175,-9.2741995,-3.1597,jog
2.9541967,0.10463249,1.1243062,-13.667,9.019199,4.1739,0.5653,-9.3722,-2.8304,jog
2.7493649,1.0515783,1.3072516,-7.4790998,6.1043,0.8929,0.536,-9.497399,-2.3834999,jog
3.259769,0.111421816,0.9316393,2.116,6.1538997,3.2063,0.3748,-9.5764,-2.0785,jog
2.9497461,-1.5138113,1.3061869,7.5411997,7.2703,5.8057,0.117699996,-9.663099,-1.6672,jog
2.702241,-2.7799256,1.5707091,8.623899,6.3817997,5.6884,-0.0137,-9.7357,-1.1774,jog
2.5573437,-3.7090516,1.0819122,6.3837,3.4889,4.8322997,-0.078,-9.7946,-0.4782,jog
1.9948764,-4.4912033,0.60681605,-3.0372,-8.6814995,3.6369998,-0.012499999,-9.804,0.2267,jog
1.2799371,-3.8372285,0.43022367,-6.3898997,-20.868599,2.3539999,0.0254,-9.7575,0.9802,jog
0.0051138145,-1.8254398,0.5466022,-0.1891,-20.5437,4.8279,-0.17369999,-9.6901,1.4972999,jog
-1.4761646,0.050178215,0.5228134,1.2669,-15.8926,-0.34379998,-0.46269998,-9.585,2.0207,jog
-2.6516263,1.9472988,0.33763394,2.5574,-15.456699,2.0579,-0.6451,-9.4227,2.6394,jog
-3.442435,3.6368997,0.2879095,1.9574,-10.8234,2.221,-0.8002,-9.2311,3.2117,jog
-3.4528198,3.4818969,0.25497514,2.1387,-3.7912,-3.6738,-0.8933,-9.0162,3.7523,jog
-2.6341732,2.3551297,-0.05183628,1.9817,1.6494,-7.8613997,-0.7755,-8.769,4.3212,jog
-1.1153702,1.1928977,-0.113324225,3.909,5.5111,-6.2542,-0.5061,-8.6002,4.6851,jog
0.19743164,0.7029139,0.3143687,7.3399,9.3565,-6.7553,-0.2104,-8.4739,4.9312997,jog
0.5721015,3.2258747,0.7397404,6.9776998,12.109799,-7.3801,-0.122899994,-8.4716,4.9382997,jog
-0.46251225,3.6787353,0.5415582,5.2771997,14.1918,-6.5492,-0.217,-8.611899,4.6858997,jog
2.9824536,-5.346956,-0.37156314,3.0479999,12.983999,-7.0146,-0.4493,-8.8456,4.2099,jog
-0.88362527,3.5415175,-1.255712,2.0288,10.5018,-4.4976997,-0.7833,-9.1092,3.5463998,jog
-5.037125,3.7604864,0.22736403,0.2686,6.403,2.2343,-1.0531,-9.325399,2.8453999,jog
-1.5768875,1.7251009,0.3262195,-3.8367,2.5091999,6.6552997,-1.1646,-9.4621,2.2981,jog
-2.349161,0.14205235,-1.2649971,-3.9898,0.53529996,8.3607,-1.1977999,-9.5182,2.0342,jog
-3.0658104,-0.9058433,-1.9488696,-3.4002,6.915,-2.0916,-1.2774999,-9.5039,2.0523999,jog
-4.1942005,0.4206767,-2.204351,11.5241995,8.7631,-5.2176,-1.5508,-9.4594,2.0697,jog
-4.164024,0.7455523,-1.8225077,8.8685,-16.5085,-1.6922,-1.7979,-9.4594,1.8589,jog
-3.948528,1.4543304,-0.97122335,5.6082997,-9.4018,-26.1519,-1.4894999,-9.3386,2.5963,jog
-2.3551822,1.8258587,-0.8375486,-7.9441996,-6.1169996,-21.1978,-1.421,-9.426499,2.3004,jog
-1.0759082,1.5328006,-0.79470074,-1.7019,-4.6538,11.1088,-1.5832,-9.5852995,1.3357999,jog
0.22418754,1.3060473,-1.2741078,3.5686,-12.3164,-10.1655,-1.6856999,-9.6111,0.9766,jog
1.1047934,1.6126667,-0.91144586,5.087,-9.8036995,-3.8953998,-1.4193,-9.6918,0.4728,jog
1.4492517,2.1465805,-0.05914921,0.9669,-6.2373,-2.1434999,-1.0747,-9.747399,-0.0433,jog
1.203614,1.6509768,0.71651,-2.9973,-9.4837,1.2414,-0.6408,-9.747,-0.86869997,jog
1.4325837,-0.7320609,0.9316393,-4.3410997,-16.1048,11.1867,-0.2679,-9.6572,-1.6840999,jog
2.169357,-2.1759195,0.5668131,0.1786,-9.4201,14.262099,-0.021699999,-9.4969,-2.445,jog
2.7702215,-2.2002492,0.35416222,3.6987,0.77889997,13.3296995,0.23369999,-9.3695,-2.8855999,jog
3.0599985,-1.8707836,0.33135074,1.1642,7.7307,14.539599,0.4734,-9.2998,-3.0756,jog
2.930722,-1.2179955,-0.22256438,-8.7726,9.297299,12.618099,0.78999996,-9.297299,-3.0174,jog
2.7292936,-1.2261986,0.45814893,-15.210799,9.5841,7.0724998,1.0794,-9.3488,-2.7575998,jog
1.9505451,-0.48179814,1.5500618,-12.9976,7.4347997,-3.4836,1.1904,-9.4158,-2.4689,jog
2.9221349,0.88741267,1.6896707,-3.2405,8.0275,-1.2293,1.1321,-9.4887,-2.2029,jog
3.4126074,-0.48101273,1.6499121,0.8214,7.8413,4.5731,0.9241,-9.5673,-1.9449999,jog
2.4342456,-0.85383254,1.4003301,0.8871,5.6691,6.1933,0.7211,-9.660399,-1.5252999,jog
2.0692275,-0.67521554,1.0942167,3.4715998,4.9044,3.8825,0.60789996,-9.7293,-1.068,jog
1.9411901,-0.3838677,0.5935865,2.5456,0.8077,4.4634,0.514,-9.7808,-0.4917,jog
1.2933588,-0.9557423,0.2411696,-4.8327,-14.9521,1.6695,0.557,-9.79,0.125,jog
0.5900958,-1.6586038,0.17191494,-1.4649,-26.8021,6.3290997,0.4842,-9.7766,0.5943,jog
-0.49987975,-0.6229604,0.07892379,3.8806999,-17.8786,2.7052,0.189,-9.756499,0.9722,jog
-1.7969561,1.2816128,-0.27689648,10.3117,-16.0001,0.0184,-0.1619,-9.6834,1.5407,jog
-2.8641376,3.2627535,-0.34869933,14.0435,-14.049299,1.0652,-0.4613,-9.5454,2.2003,jog
-3.093404,3.3619056,-0.04579744,8.0402,-8.1137,3.0846999,-0.6852,-9.4107,2.6717,jog
-2.5085268,2.0902064,0.04230678,3.636,-2.6202998,-2.2058,-0.8509,-9.2751,3.0688,jog
-1.296448,0.9189333,0.20320868,2.1513,0.92029995,-6.2085,-0.9353,-9.1382,3.4332,jog
0.14515904,0.36983526,0.6281091,4.0197997,6.286,-8.4128,-0.9111,-9.041699,3.6859999,jog
0.70214593,2.5839949,1.2185016,5.0049996,13.1916,-6.8514,-0.8175,-8.9944,3.8212,jog
0.68963194,4.3152046,1.8650414,5.2369,16.9547,-5.5063,-0.7847,-9.0309,3.7410998,jog
1.0593101,1.8337826,1.0577044,1.6593,15.5379,-6.6197996,-0.8257,-9.1636,3.3934,jog
2.1974218,-2.1480117,0.25935593,-0.6429,10.9135,-6.6084,-0.9751,-9.363999,2.7445998,jog
-0.6962642,2.1141,-0.18976966,-0.2375,5.1865,-1.8321999,-1.1157,-9.5014,2.1557999,jog
-4.175997,3.94317,0.6636789,-0.7976,1.5343,6.0895996,-1.2028999,-9.5954,1.6280999,jog
-1.9796572,2.791305,-0.35552356,-5.4481,-0.69729996,11.764999,-1.2694,-9.629,1.3562,jog
-2.4182932,1.3915684,-1.7961358,-6.8469996,3.2633998,10.707399,-1.4002999,-9.6083,1.3743,jog
-3.2745345,0.9579589,-1.570936,-1.2944,8.0405,-6.9006996,-1.7062999,-9.550799,1.4286,jog
-3.8657124,1.6158782,-1.4865842,15.853399,0.6033,11.827399,-2.1829,-9.4587,1.3917999,jog
-3.1986475,2.3190887,-1.4226876,9.0352,-24.6008,-2.0657,-2.4354,-9.3791,1.5067999,jog
-3.0029786,2.579841,-0.9607688,5.0754,-2.4887,-20.085,-2.408,-9.289,2.0212,jog
-2.4564114,3.1422734,-1.0063045,2.62,5.1765,-12.6742,-2.4531999,-9.324699,1.7888,jog
-1.2355709,3.390913,-0.74497634,11.1137,-3.7319999,1.8051,-2.6799998,-9.399,0.8034,jog
0.42367867,2.939117,-0.8137249,3.3885999,-20.617899,-7.9603,-2.6432998,-9.4394,0.2817,jog
1.4074509,1.9885932,-0.7121118,-1.0704,-12.2219,-4.2846,-2.303,-9.5292,-0.24589999,jog
1.457507,3.2762272,0.04129449,-2.6367,-5.6513,-2.814,-1.9919,-9.5587,-0.91239995,jog
1.0124131,2.2643552,0.7582932,0.6459,-5.8747997,4.2393,-1.6658,-9.5117,-1.7091999,jog
1.5995942,0.14227924,0.7552389,1.5770999,-11.977099,8.7167,-1.2633,-9.411099,-2.4503,jog
2.1890616,-1.0144726,0.4151964,2.0691,-8.1304,13.600699,-0.9413,-9.2664995,-3.0683,jog
2.7809901,-0.90919435,0.33328807,-0.17799999,0.39049998,16.737299,-0.5476,-9.1184,-3.567,jog
3.0284953,-0.64762187,0.10365511,-0.53429997,9.3946,9.5189,-0.20109999,-9.0416,-3.7919,jog
3.2428916,0.2361605,-0.097354464,-8.2476,9.9073,12.434199,0.1669,-9.0737,-3.7161,jog
2.699902,-0.77593845,0.9904918,-14.678599,7.5129,5.3791,0.4393,-9.170199,-3.4471,jog
2.3392298,1.9736009,1.2281009,-10.944699,6.0992,-1.9763,0.6477,-9.2668,-3.1427,jog
3.5616584,2.4259205,0.707923,-1.8599999,6.6902,1.5225999,0.644,-9.337999,-2.925,jog
3.2765415,1.4367551,0.7487637,0.49989998,6.0326,5.6924996,0.5101,-9.4355,-2.623,jog
2.7218235,-0.15816173,0.5936214,1.4418,5.0046997,8.3063,0.3821,-9.545199,-2.2164,jog
2.7136378,-0.648512,-0.33217105,4.7285,5.145,5.7679,0.2826,-9.656,-1.6883,jog
2.4053605,-1.0956304,-1.1239222,1.7888999,-4.7464,3.9088998,0.2409,-9.7477,-1.0453,jog
1.4565296,-1.581216,-0.8585973,-1.5066999,-23.2468,2.5626,0.2613,-9.791699,-0.47379997,jog
0.4399626,-1.292137,-0.43490115,9.2916,-30.0087,13.7646,0.0638,-9.8062,0.052899998,jog
-0.73289865,-0.18147933,-0.31134927,10.4065,-17.617899,1.9229,-0.188,-9.7916,0.50909996,jog
-2.0667317,1.55631,-0.44502404,13.528,-14.0834,0.3777,-0.36749998,-9.726999,1.1912999,jog
-3.2188585,3.4473917,-0.31977922,11.186,-8.0793,0.8354,-0.5556,-9.6216,1.8123,jog
-3.6771817,3.4747062,-0.21498966,6.3708,-3.5842998,0.29029998,-0.6732,-9.4879,2.3868,jog
-3.2342696,2.202082,-0.13753195,1.6061,-1.5609,-4.5512,-0.5862,-9.3636,2.8546,jog
-2.0137608,1.0741978,-0.09047787,0.4666,-0.64989996,-7.4010997,-0.30969998,-9.2253,3.3116999,jog
-0.5271767,1.2612273,0.5366538,1.3398,5.2142997,-6.0729,-0.015899999,-9.1174,3.6114,jog
-0.23677136,4.043631,1.3402733,1.6740999,12.2948,-6.3199997,0.14,-9.087999,3.6820998,jog
0.41016984,5.1310234,1.7471619,1.3492999,17.1127,-6.0485,0.20989999,-9.1399,3.5477998,jog
1.925325,1.1450058,0.98691386,-1.3134999,15.252399,-7.3426,0.1857,-9.2899,3.1355,jog
2.3936493,-1.7674426,-0.37409386,-1.0619,10.9559,-7.4051,0.0616,-9.4555,2.5999,jog
-1.1715871,3.222541,-0.77949893,-0.70129997,6.8163,-0.88799995,-0.0537,-9.620999,1.8980999,jog
-3.2663488,3.8785927,-0.0045029493,-2.5704,3.1139998,7.1452,-0.0969,-9.7237,1.2688,jog
-0.46490335,1.2424126,-0.71308917,-8.9786,-1.2163,15.5813,-0.102299996,-9.767,0.87409997,jog
-1.6135395,0.0141546205,-1.4874917,-6.0678997,2.7424998,9.0004,-0.2279,-9.7739,0.76699996,jog
-2.7054522,-0.16285667,-1.2132481,-0.6843,7.5494,-0.0033999998,-0.58059996,-9.765699,0.68009996,jog
-2.948594,0.43336526,-1.2605292,17.3276,-3.5512998,1.8094,-0.95049995,-9.7366,0.6814,jog
-2.7322605,0.9013055,-1.4011678,13.380899,-14.9024,-2.9729,-1.1618,-9.682799,1.0311999,jog
-2.7154531,1.1263483,-0.94773126,-1.476,5.707,-12.3102,-1.0442,-9.6296,1.5327,jog
-1.8050894,2.1058793,-0.5522222,-6.0678,4.7844,-22.982399,-0.9831,-9.677899,1.2409999,jog
-1.0966427,1.9523253,-0.4892507,1.8649,-7.2198,8.4358,-1.0509,-9.7358,0.52739996,jog
-0.16016887,1.7942333,-0.7459363,-2.9401,-18.3809,-7.5319,-0.92359996,-9.7543,0.4123,jog
0.5388704,1.3410761,-0.74492395,-2.1517,-8.8938,-3.4485,-0.60389996,-9.7878,0.0652,jog
1.0230422,1.2794659,-0.28370327,-0.4527,-3.4780998,0.4199,-0.3906,-9.790199,-0.41009998,jog
1.414345,0.562956,0.27735028,1.1423,-5.6071997,1.5172,-0.1126,-9.7499,-1.0465,jog
1.6168032,0.020909045,0.5991017,-2.3794,-13.6437,10.4091,0.1533,-9.6862,-1.5242,jog
2.1272073,0.18788469,0.63353705,-3.5535,-11.4705,13.6821995,0.3761,-9.5843,-2.0417,jog
2.6685212,-0.14449582,0.5427625,-0.52529997,-2.6606998,12.8005,0.5743,-9.499499,-2.3662,jog
2.9977949,-0.57536525,0.41181043,-0.3707,5.5653996,9.8341,0.7629,-9.439099,-2.5477998,jog
2.9514215,-0.16826719,-0.24181537,-4.8588,9.584499,5.41,0.99499995,-9.4178,-2.5463998,jog
3.258844,0.25651103,-0.37336084,-8.1058,8.702499,4.7493997,1.2019,-9.4282,-2.4154,jog
2.8753252,-1.1769104,1.0681415,-8.287,8.8209,3.6608,1.3144,-9.4682,-2.1898,jog
2.3726704,1.2737064,0.6164677,-5.5899,7.8367996,4.4365,1.2847999,-9.533299,-1.9064,jog
3.6166363,1.0293428,0.009424778,-1.581,5.6787,5.5369997,1.1594,-9.611199,-1.5653,jog
3.3592875,0.6208834,0.024731316,3.0156999,5.3322997,2.5553,1.054,-9.6765995,-1.1922,jog
2.422831,0.69448394,-0.0066671576,6.8708997,6.3782,3.5670998,0.93509996,-9.7418995,-0.6252,jog
1.5290481,1.1553206,-0.32346186,6.3079996,4.5524,4.9536,0.8508,-9.7695,-0.0503,jog
0.66566855,1.3553878,-0.36397097,-3.1787999,-8.3581,2.5839999,0.8939,-9.7547,0.4657,jog
-0.068120204,0.14425147,-0.26141542,-4.738,-21.92,4.1418,0.9625,-9.6965,1.1046,jog
-0.6760533,-0.7161959,-0.30079004,8.7928,-19.489399,5.7344,0.78819996,-9.6363,1.6401,jog
-1.6088969,0.1964717,-0.16521287,8.2628,-12.1854,0.1811,0.622,-9.5559,2.1136,jog
-2.6843164,2.2012966,-0.40507346,13.46,-12.227099,-0.7813,0.5634,-9.3572,2.8799,jog
-3.5932488,3.9510415,-0.5460786,15.9022,-10.4078,2.575,0.5239,-9.1661,3.4462,jog
-3.9692976,4.0409083,-0.3045425,6.5277996,-7.5358996,1.2455,0.4741,-8.9882,3.8930998,jog
-3.4606738,2.518545,-0.033859387,-0.5523,-4.5863,-3.9106,0.4346,-8.8487,4.2048,jog
-2.243708,1.0443177,0.14688691,-0.75119996,0.6064,-7.5469,0.3883,-8.795,4.3205,jog
-0.92949253,0.07840019,0.39566615,-1.0102999,5.1997,-7.1635,0.4219,-8.798699,4.3097,jog
-0.3922453,0.6446199,0.9836501,0.8861,9.6672,-5.988,0.53569996,-8.8532,4.1836,jog
-0.01966986,4.6392245,1.476915,2.5691,13.7181,-5.0460997,0.5493,-8.9815,3.8988,jog
-1.0688221,6.918049,1.0745643,0.6369,12.743899,-5.434,0.4614,-9.1743,3.4334998,jog
4.295988,-6.319907,-0.7283608,-2.4034,9.2175,-5.7616,0.3048,-9.4136,2.7312999,jog
0.44491932,3.1427271,-1.8480419,-4.0361,5.0337,-3.0505,0.1821,-9.5838995,2.0698,jog
-1.9937071,7.408818,-0.5399525,-4.1117997,2.9671,2.0036,0.100899994,-9.7043,1.4089999,jog
-2.6050086,3.3650646,0.01293289,-4.6271,2.4226,2.5565,0.047399998,-9.757999,0.9738,jog
-0.4055796,1.6092285,-1.8466282,-4.9602,3.7531998,5.5525,-0.0313,-9.7745,0.7923,jog
-2.4305978,0.8378802,-2.3885877,-3.6107,9.9053,7.3862996,-0.23339999,-9.7778,0.71389997,jog
-3.4112809,-0.08831366,-1.9943528,10.0851,14.8048,-10.413799,-0.6217,-9.7642,0.666,jog
-3.925263,0.69680524,-1.2181525,23.820599,-6.2653,21.3702,-0.9025,-9.758699,0.3514,jog
-2.9964685,1.6885886,-0.85449576,-2.167,-29.026999,13.121699,-0.68659997,-9.7092,1.1959,jog
-1.6372236,1.1051075,-1.3848664,-4.8603997,-3.7457,-15.9642,-0.3762,-9.7188,1.2542,jog
-1.2326039,1.2726766,-1.4724994,-2.3432999,4.8768,-12.8248,-0.42209998,-9.7605,0.8508,jog
0.0070860367,2.7087162,-1.2979665,3.2979999,-6.0666,2.0519,-0.46379998,-9.7907,0.3114,jog
1.309922,0.9000314,-1.1743448,-8.6467,-18.0964,-8.8035,-0.110599995,-9.8034,0.2226,jog
2.5601711,-0.13835225,-0.7292684,-9.3996,-11.9052,-6.3283997,0.3579,-9.7968,-0.2518,jog
2.500987,0.35498253,0.30026644,-5.1988,-6.4754996,7.127,0.74649996,-9.734799,-0.9194,jog
2.1078691,-0.93886495,1.3456663,1.0037999,-12.4786,15.382099,1.0260999,-9.5961,-1.7411,jog
3.1596045,-1.3339552,1.2752771,3.8467999,-15.5841,13.508599,1.2329999,-9.4718,-2.2212,jog
3.8009431,-2.4708626,0.6508507,-1.4674,-4.1182,18.0129,1.5459,-9.356,-2.4988,jog
4.778153,-2.5875204,0.010960667,-5.3521,4.1593,14.6468,1.9197999,-9.2294,-2.7022998,jog
4.5612435,-1.1146196,-0.68731064,-9.217,8.121699,3.1581,2.2640998,-9.1807995,-2.5990999,jog
4.0744886,0.57480675,-0.19805996,-17.8322,8.2083,11.690499,2.5240998,-9.189,-2.3153,jog
3.4141083,0.7379601,0.79555595,-21.9457,5.8801,-5.473,2.6657999,-9.2634,-1.8034999,jog
3.4935558,0.25949556,1.0415077,-12.9911995,5.6324,-1.1330999,2.6255999,-9.3491,-1.3675,jog
3.8278039,-1.6291776,1.127343,1.7393999,6.3575997,5.558,2.3499,-9.4664,-1.0175999,jog
2.8498435,-2.8561265,1.6267341,8.5983,7.5874996,5.7745,2.0614,-9.5782995,-0.4201,jog
1.927559,-4.065727,1.9438604,9.0994,4.4136,6.5699,1.9427999,-9.6111,0.1475,jog
1.6318305,-5.245779,1.7863096,2.9289,-3.3957999,3.6825,1.9743999,-9.5489,1.0442,jog
1.166997,-5.084493,1.1515857,-3.2772,-17.158699,0.2874,2.12,-9.4074,1.7816999,jog
-0.04939282,-2.5349336,0.8580213,-7.2019,-24.503199,-0.5651,2.1318998,-9.2218,2.5657,jog
-1.7663081,-0.15090117,0.4338016,-10.6126995,-18.274399,-1.5432,1.9435999,-9.0566,3.2201,jog
-3.1294103,1.6962332,0.08988445,-8.0042,-17.2124,-0.829,1.7182,-8.8241,3.9180999,jog
-3.9368346,2.4040165,-0.028867746,-1.8901,-13.113,-2.9380999,1.6646,-8.5694,4.468,jog
-3.5087402,2.0244248,-0.003281219,0.6483,-8.0515995,-4.3349,1.6560999,-8.335199,4.8939,jog
-2.2828557,0.7613126,0.14889404,1.2609,-2.0585,-9.9684,1.7398,-8.209,5.0748997,jog
-0.8618959,-0.6675884,0.34939745,2.2668,5.6667,-8.503799,1.9597,-8.1184,5.1401,jog
0.45062655,-0.6306049,0.6416528,5.8247,10.7739,-7.5445,2.2951,-8.0476,5.1124,jog
0.49766317,2.4556434,1.2345587,7.0982,14.109099,-8.8947,2.4239,-8.0977,4.9719996,jog
-1.475641,4.943418,1.3865768,4.0894,13.8502,-7.5394998,2.3731,-8.2703,4.7053,jog
3.58447,-4.4992843,0.43853143,-0.5779,10.6241,-6.1587996,2.2058,-8.5549,4.2563,jog
1.8484782,1.5943234,-1.3136744,-2.7752,7.7089,-1.6122999,2.0200999,-8.866099,3.6717,jog
-2.3791282,0.32904693,-0.8827352,-3.1481,4.6717997,2.3128998,1.8829999,-9.1044,3.1199,jog
-4.6801353,1.9027405,0.95628333,-3.0693,2.3132,5.9107,1.8041999,-9.2563,2.6896,jog
-0.4701219,0.7289193,-0.8068482,-5.8828998,0.114999995,9.4387,1.7738999,-9.3136,2.5056999,jog
-3.3736691,-0.83753115,-1.5537095,-7.9614997,5.2335997,1.1649,1.6951,-9.3131,2.5616,jog
-3.9250536,-1.9472812,-2.0098164,2.5163,11.3351,-19.6806,1.2983999,-9.324699,2.7445,jog
-4.3206325,-0.7860614,-1.658918,11.9709,-9.9459,23.3191,0.8267,-9.4222,2.59,jog
-3.6177883,0.37337828,-1.1164348,2.2512,-13.655499,1.5697,1.0045,-9.2233,3.1766,jog
-2.6810002,1.3907307,-1.2073839,-5.6879,-3.7954,-20.161499,1.1376,-9.0708,3.5491,jog
-1.8194184,1.567009,-1.3444794,-8.6319,2.8437,-30.5513,1.277,-9.2081995,3.1220999,jog
-0.4348139,0.5945115,-1.873576,0.5937,-11.2575,9.350599,0.9949,-9.4835,2.2898,jog
0.52148694,-0.4053527,-1.4192668,-0.713,-19.1183,-12.4541,1.1151,-9.487599,2.2159998,jog
1.675359,0.047787115,-0.48949504,1.3225,-10.4304,-4.9736,1.4429,-9.575,1.5511,jog
1.4138563,0.7326892,0.60528016,-1.4807,-11.1428995,2.6989,1.8729999,-9.5981,0.7334,jog
1.6348848,-1.129071,0.9782396,0.2735,-16.9103,14.9718,2.2271,-9.547999,-0.2128,jog
2.7593656,-2.807589,0.5210506,-0.6173,-12.2734995,16.3699,2.4217,-9.4677,-0.8165,jog
3.326999,-2.7320511,0.20303415,-0.13769999,-1.26,12.1749,2.6777,-9.350699,-1.2502999,jog
3.8954701,-1.8670311,0.17421876,-1.7154,6.7693996,6.8294,3.0,-9.2112,-1.5239999,jog
3.666448,-0.38842303,0.2060012,-13.73,5.7288,10.986,3.3251,-9.0925,-1.5618,jog
3.2860012,1.4627954,-0.23183209,-20.5155,8.637899,12.6847,3.5695999,-9.0106,-1.4952999,jog
4.032269,0.14706144,-0.035918877,-18.369099,7.4119,-5.3904,3.6590998,-9.0202,-1.1897,jog
3.5726192,-1.2081518,2.147296,-5.2219,7.8869996,-1.4827,3.5646,-9.0933,-0.8806,jog
3.4600978,-0.005497787,2.0614955,3.2315,7.7054996,3.7196999,3.3681998,-9.186299,-0.65999997,jog
3.8688364,-1.6755335,1.6116196,2.5923998,6.1545997,6.894,3.2326,-9.2535,-0.3039,jog
3.3724473,-3.213884,2.0607276,0.7389,3.7308,4.8398,3.1934998,-9.2716,0.0929,jog
2.7214396,-4.973281,1.8117042,1.0409,4.3977,3.2461998,3.1757998,-9.252,0.69589996,jog
2.0475504,-5.8235354,1.4584495,-1.3707,-0.5675,3.9671998,3.1457,-9.19,1.3478999,jog
1.1095407,-4.7287254,1.1805058,-10.571799,-18.5709,-2.6382,3.1383998,-9.064099,2.04,jog
-0.32379347,-2.306086,1.0368128,-11.2184,-36.9587,3.7584,3.1376998,-8.8677,2.7726998,jog
-1.7566913,-0.5163033,0.8967851,3.7185998,-24.5766,3.3497999,2.8027,-8.7659,3.3871999,jog
-2.990325,1.6264898,0.76857316,0.86399996,-18.714699,0.2778,2.48,-8.636,3.9292,jog
-4.1950035,3.7032745,0.48740065,-4.6022997,-12.745999,-2.8304,2.3467999,-8.387199,4.5073,jog
-4.5117636,3.2341475,0.45779985,-2.1301,-5.529,-8.124,2.3065999,-8.141399,4.9565,jog
-3.9002697,2.0336926,0.1396787,-0.59319997,-0.19649999,-10.2457,2.4957,-7.9722996,5.1363997,jog
-2.4376838,0.33775613,-0.40140828,2.892,6.8002,-7.9234,2.8644,-7.8396997,5.1481,jog
-0.1648289,-2.2761536,-0.07942993,3.6246998,11.3539,-8.672,3.1908,-7.7941,5.0239,jog
0.9720262,-2.5285282,0.6605373,1.4185,12.4332,-10.3265,3.2493,-7.883,4.8445997,jog
0.78970915,2.761774,0.8403935,1.6313,14.1264,-7.8550997,3.1543,-8.1051,4.5306997,jog
1.4671413,4.561348,0.71071553,1.5333999,14.7258,-8.9874,2.8599,-8.4398,4.0938997,jog
3.855729,-0.06161012,-0.54801595,-1.1833999,11.1087,-7.3013997,2.5269,-8.7551,3.6239,jog
-1.2688544,-0.27796113,-0.24394467,-0.4957,7.29,-1.7763,2.2315,-9.0748,2.9726999,jog
-4.5973196,3.0021408,1.4489723,-0.7421,2.5698,4.0548,2.0856,-9.307,2.2802,jog
-2.003062,0.25830874,-0.05745624,-5.6707997,-2.8751,9.3259,2.1404,-9.3831,1.8829999,jog
-2.4748943,-1.1783067,-2.5711493,-6.3761,-0.94049996,12.7648,2.2475,-9.385799,1.7391,jog
-3.9711127,-2.3444483,-1.6181821,-6.4431,8.9401,10.4564,2.2164,-9.3814,1.8018,jog
-4.18146,-2.2828557,-0.8145277,12.513,-12.9732,-8.2434,1.9518,-9.3859,2.0651999,jog
-3.0707846,0.20931734,-0.59939843,0.7926,-20.3601,-18.6152,1.61,-9.3441,2.5029,jog
-2.3064003,0.056897733,-1.2199851,-3.2933998,6.1046,-24.8559,1.7146,-9.1054,3.2126,jog
-2.3379035,0.46530476,-1.7004393,-13.8679,11.8526,-20.3386,1.7763,-9.1753,2.971,jog
-0.99967223,1.30692,-1.7603915,3.5528998,-1.3772,4.0393,1.3503,-9.459,2.2073998,jog
0.29482102,1.3015618,-1.4468604,6.5534,-26.8834,-11.3659,1.3507,-9.5384,1.8338,jog
1.1967548,-0.70090675,-0.65469044,-4.7616,-19.6509,-8.0508995,1.8785,-9.5336,1.3235999,jog
1.6390387,-0.13412856,0.45682248,-5.9691,-10.049399,9.413799,2.2621999,-9.5344,0.383,jog
1.1450058,-0.23277456,1.2301255,3.4733,-11.6348,15.227699,2.4008,-9.4985,-0.42949998,jog
2.1904056,-1.5898727,1.1719013,4.769,-10.6785,11.346399,2.5172,-9.425099,-1.0004,jog
2.8668253,-2.6660776,0.5733581,0.9205,-3.4731998,15.4235,2.7470999,-9.3048,-1.4294,jog
3.2254207,-2.1403496,0.27680922,-3.4778,5.0989,9.6199,3.0758,-9.129499,-1.8334,jog
3.2858267,-1.0067234,0.03267256,-10.894199,5.009,4.5859,3.4803,-8.9609995,-1.9381,jog
3.6506178,-0.2579422,0.39521235,-16.5345,9.0533,7.9449,3.7565,-8.8768,-1.8059,jog
3.0950623,-1.5586662,1.1760029,-20.8825,7.1324997,2.8725998,3.8483999,-8.8682995,-1.6467999,jog
2.9358358,-0.37662458,1.3966473,-11.0296,6.8931,-2.6166,3.7628999,-8.952499,-1.3648,jog
3.5819218,-0.3416133,1.4814006,1.0869,7.3567996,4.6278,3.5123,-9.0827,-1.1561999,jog
2.7789307,-1.6575043,1.642285,6.1046,8.1947,5.9337997,3.2900999,-9.1949,-0.89309996,jog
2.2622259,-2.5720742,2.0743935,3.6794,5.7425,5.7325997,3.146,-9.2729,-0.5351,jog
2.1251128,-3.0231545,2.2208092,-1.2279999,0.9151,3.0891,3.0814998,-9.3096,-0.0687,jog
1.8752865,-3.8050447,1.4130883,-7.6984,-10.8545,-0.0788,3.0795,-9.2980995,0.4809,jog
1.2741252,-3.8906705,1.1282506,-9.2767,-24.0796,-1.3785,3.0103,-9.262899,1.1431,jog
0.23122121,-2.5125935,0.7912276,-2.2208,-25.551498,4.887,2.819,-9.2424,1.6736,jog
-1.3169208,-0.60393625,0.56046015,4.6078997,-18.5333,-1.3485999,2.5999,-9.2095995,2.1429,jog
-2.6395137,1.3503786,0.26637214,6.0492,-16.4496,-1.7723999,2.3451998,-9.1064,2.7825,jog
-3.3812788,2.742436,-0.03042109,-0.26389998,-14.110399,0.6519,2.1468,-9.013599,3.2119,jog
-3.233973,2.4315403,-0.16400859,-1.5646,-7.0285997,-3.8758998,1.9470999,-8.9463,3.5131,jog
-2.437265,1.6636827,-0.0400204,-0.4869,0.8814,-7.8886,1.7716,-8.873799,3.7796,jog
-1.2443849,0.49579567,0.24239133,2.0214,7.1414,-9.867499,1.8226999,-8.7692995,3.9933,jog
0.3311937,-0.8109498,0.5490457,4.1724,13.7849,-8.9071,1.9273,-8.7149,4.0625997,jog
1.5999608,0.5975135,1.0267074,3.8625,15.9449,-8.8098,1.9919,-8.7272,4.0045,jog
0.29372147,5.0693088,1.8478324,2.9924,16.490799,-6.2009997,1.9402,-8.851399,3.7493,jog
2.7531,-1.3721604,1.1220547,1.5471,14.6182995,-6.3085,1.7968999,-9.0482,3.3272998,jog
0.8668178,0.68036425,-0.12517501,-0.1927,10.3136,-2.9396,1.6342,-9.254499,2.8023,jog
-2.06366,-0.46457174,-0.03663446,-0.5724,6.1326,1.9358,1.5333999,-9.4276,2.2221,jog
-5.04264,3.7476757,0.4966509,-1.185,1.9254999,6.6113,1.4792,-9.5159,1.8517,jog
-1.6779596,-0.46179667,-1.4237698,-1.9255999,-1.2112,12.335899,1.4157,-9.566199,1.6287,jog
-3.283261,0.0006283185,-1.7693799,-8.0548,1.5093,16.3057,1.3373,-9.570399,1.6697999,jog
-4.1302342,-0.7917163,-1.218746,-5.4635,-0.85789996,-11.748,1.1192,-9.537,1.9902999,jog
-3.8101585,0.20849703,-0.71884876,1.5711,-17.539799,1.536,0.5568,-9.5559,2.1316,jog
-2.8170137,1.3390515,-0.753319,6.8574996,-2.6169999,-29.158699,0.4091,-9.4353,2.6415,jog
-2.5786717,1.6414124,-1.0807253,5.253,5.4937,-0.7802,0.3955,-9.387,2.8102,jog
-1.7346653,1.7430778,-1.2302302,-1.6819999,1.4531,-25.7664,0.4267,-9.494599,2.4167,jog
-0.6585127,1.9045905,-1.3311975,6.8368998,-12.2486,4.4115,0.16499999,-9.7084,1.3744,jog
-0.28314477,1.1557395,-1.1640648,-3.4055998,-22.241499,-9.8552,0.4243,-9.7379,1.0783,jog
0.43168974,0.5931676,-0.55028486,-5.0797997,-13.053499,0.0971,0.8041,-9.766399,0.3735,jog
1.0196214,0.88221157,0.15447909,-2.4991,-10.0822,8.4457,1.0182999,-9.746799,-0.36499998,jog
1.3303423,0.30419344,0.6627015,1.9966999,-11.0756,12.4862995,1.161,-9.6751995,-1.1007999,jog
2.2441094,-0.8858593,0.5967281,1.1387,-6.6106997,11.9558,1.3422999,-9.58,-1.6098,jog
3.0087206,-1.8656697,0.3616846,-0.9119,0.10789999,14.5164995,1.6082,-9.4536,-2.0521998,jog
3.3395479,-1.5149633,0.3767293,-2.8961,6.5787997,4.9547,1.9154999,-9.334499,-2.3167,jog
3.0548322,-0.24242623,-0.022043508,-7.0572,8.8658,4.1151,2.2519,-9.248199,-2.3597,jog
3.4670792,0.5668131,0.031066861,-10.729099,7.2767997,11.4474,2.5209,-9.179299,-2.3566,jog
2.7534664,-0.903714,1.1798251,-12.916699,5.9737997,6.5126,2.6492,-9.1708,-2.2467,jog
2.7362924,1.8616729,1.4069449,-8.6109,6.6433,1.62,2.6583,-9.2225,-2.0121999,jog
3.4726293,0.90778065,1.2948248,-1.321,7.5319996,2.7991,2.5468,-9.307,-1.7498,jog
2.813558,-0.9647831,1.3920921,1.0541999,6.5824,4.8157,2.4074,-9.4067,-1.3736,jog
2.3674345,-2.0171294,1.4263179,2.0672,5.4124,4.9818,2.2967,-9.492,-0.8925,jog
1.9269133,-2.1490936,1.4590429,3.0400999,3.9108,4.3452,2.2064,-9.5496,-0.32439998,jog
1.3112658,-2.7885997,1.0196737,-4.1423,-9.719,-0.121,2.2103999,-9.551,0.24849999,jog
0.69759065,-3.022788,1.0013652,-6.2265,-27.809399,1.3797,2.1959999,-9.5048,1.0031999,jog
-0.18305013,-2.5369408,0.81442297,3.605,-25.540298,7.8076997,2.0140998,-9.4889,1.4397999,jog
-1.3380567,-0.5975309,0.41121703,6.3388,-15.4824,-2.8509,1.6829,-9.446,2.0270998,jog
-2.62042,1.935413,-0.012496557,6.2815,-13.8572,-2.7744,1.3676,-9.306,2.7744,jog
-3.199363,2.7986355,-0.2753955,-1.1977,-10.986,1.4668,1.1879,-9.1861,3.2207,jog
-2.682571,2.0473235,-0.55443877,-2.4284,-6.5065,-4.0192,1.0653,-9.0566,3.6072998,jog
-1.5556643,0.709232,-0.5896246,0.6434,-1.5151,-7.1281,0.955,-8.9289,3.941,jog
0.042324234,-1.3019807,-0.24609143,2.2719,3.9485,-9.2898,0.99359995,-8.8518,4.1019998,jog
1.0322052,-1.9263548,0.05412266,3.768,11.4233,-8.5564995,1.0666,-8.814799,4.1631,jog
1.7282599,-0.79670787,0.18495254,4.1638,16.8107,-6.5169,1.1316999,-8.8477,4.0751,jog
1.0191152,4.1959286,0.11847295,4.1703,18.4652,-6.6281,1.1056,-8.9626,3.8234,jog
1.889092,1.3291554,0.07494444,2.1599998,13.3289995,-5.7816997,0.96819997,-9.1514,3.3888,jog
4.2329645,-2.4702344,-2.4357116,0.6558,7.9533997,-1.9550999,0.8445,-9.346,2.8474998,jog
-2.5747097,1.0759605,-0.4951499,-1.4204,3.3574998,1.9083999,0.8418,-9.4768,2.3769999,jog
-0.5646489,4.274154,1.2632693,-3.3836,0.89629996,7.6147,0.92219996,-9.535999,2.0937998,jog
-1.925709,-0.12388347,0.38498473,-3.7103999,2.5470998,8.5243,1.0232999,-9.5294,2.0765998,jog
-2.8159666,0.20964895,-0.40653953,-3.4986,6.8971,12.2423,1.096,-9.4861,2.2322,jog
-2.61569,-2.7580914,-1.6668767,-5.0217,9.1918,-4.6791997,1.0991,-9.407599,2.5414,jog
-3.3458135,-2.781758,-1.2317661,21.640999,-5.1935,4.3276997,0.826,-9.3497,2.8408,jog
-4.320353,-1.8799291,-0.32709214,3.9754999,-28.438398,46.6516,0.7414,-9.2484,3.1759,jog
-3.542652,-1.4085854,-0.3506192,-12.4008,-7.1459,-43.3941,1.3586,-8.897699,3.8929,jog
-2.247443,-0.7903898,-1.070969,-14.059799,10.855,-12.4279995,1.37,-9.0898,3.4157,jog
-1.1762297,-0.21334904,-1.4715569,-6.3424,-7.8837,-4.4498997,0.8997,-9.1503,3.4104,jog
-0.015865043,0.32039008,-1.8699981,0.8695,-15.1958,-9.1923,0.83669996,-9.2815,3.0533,jog
0.6753028,0.7937234,-1.6491092,0.95549995,-12.3354,-4.5365,0.9077,-9.4451,2.4771,jog
1.3003227,0.36620498,-0.9165771,-6.4807,-10.8222,-4.4764,1.3027999,-9.5167,1.9756999,jog
1.9553971,-0.85905105,-0.24347343,-2.5695999,-6.7,2.0502,1.6281999,-9.588799,1.2544999,jog
2.1262822,-1.1741353,0.23130849,5.0155997,-6.5235,13.1046,1.7214999,-9.6476,0.35979998,jog
2.5084395,-1.5135844,0.25958282,7.7331996,-8.9585,17.9072,1.7888999,-9.6348,-0.37289998,jog
2.9521372,-1.8237993,0.090355694,4.8893,-3.4166,15.7109995,1.9850999,-9.5673,-0.8343,jog
3.091519,-1.660419,-0.16978563,0.0824,5.04,9.815,2.2612998,-9.4824,-1.0674,jog
3.0554082,-0.7329336,-0.5792748,-8.1226,6.4389997,6.1345997,2.6211,-9.3907995,-1.0547,jog
3.5642066,-0.21830578,-0.4490383,-11.9207,9.5781,1.9848,2.977,-9.3035,-0.86689997,jog
2.8364568,-1.0332174,1.9007334,-13.7557,9.819799,3.2084,3.1351,-9.270599,-0.6293,jog
1.7059895,1.5547044,2.4577203,-8.8305,7.9302998,-1.3952999,3.1720998,-9.2738,-0.3207,jog
2.1746104,0.27504644,1.7175785,-1.772,7.5986996,0.8333,3.1253,-9.295199,0.0002,jog
2.3208516,-1.2919102,1.8083007,3.3736,7.7718,1.2077,3.079,-9.3015995,0.4103,jog
1.4829888,-2.5812721,1.994824,3.4766998,6.2932,2.2665,3.0837998,-9.2744,0.80289996,jog
1.1194367,-3.3854675,1.6920269,-1.078,2.6202,1.5365,3.1569998,-9.190599,1.3172,jog
0.90017104,-3.531377,1.2601452,-12.657599,-11.208099,-1.8262,3.2726998,-9.072,1.7771,jog
0.43254495,-3.7209024,1.0271088,-14.2478,-29.038898,1.48,3.3625,-8.8931,2.4033,jog
-0.12941617,-3.4758232,1.1499102,1.4124,-23.9364,3.6511,3.0788999,-8.8667,2.8408,jog
-0.85498446,-2.8487089,1.4463195,1.9240999,-11.7611,0.87729996,2.5476,-8.9014,3.2315998,jog
-1.9518366,-1.7141926,1.5457159,0.0609,-10.9066,-0.1296,2.224,-8.8341,3.6306,jog
-3.0631402,-1.1597887,1.0329382,-1.2593,-8.1041,-4.5134,2.0046,-8.7338,3.9838998,jog
-3.0355465,-1.7610722,0.032620203,-1.4646,-4.3032,-3.201,1.8666999,-8.690499,4.1425,jog
-1.5831882,-2.741092,-0.36725217,0.5369,-0.6563,-7.2704997,1.8558999,-8.6599,4.2107997,jog
0.7725351,-4.6223474,0.16610299,1.3407999,2.3820999,-9.834,1.9442999,-8.6289,4.2344,jog
2.7560668,-4.3877926,0.42226496,0.14999999,5.6226,-9.9630995,2.0662,-8.6332,4.1674,jog
3.371051,0.16255997,0.8221897,-1.0328,8.7315,-9.2646,2.1508,-8.6923,3.9984,jog
2.8913124,2.3919911,0.9841737,0.6674,11.664,-8.2087,2.1176,-8.8201,3.727,jog
4.440973,-4.536477,-1.1953062,2.8329,11.0309,-7.3294997,1.9624,-9.0205,3.3088,jog
0.14290756,1.2007517,-0.88191485,3.1283998,6.0864,-1.9891,1.8434999,-9.2441,2.705,jog
-1.7941636,0.67532027,0.64407885,-0.7416,0.9202,3.3845,1.9282,-9.4029,2.009,jog
1.263374,-0.24760985,0.5037369,-2.9436,-2.2477,13.7842,2.0806,-9.4417,1.6416,jog
-2.1077642,-3.3470004,0.27485445,-2.4243,0.235,20.828299,2.1987,-9.4237995,1.5896,jog
-1.6549735,-3.6552255,0.040352013,-4.2247,5.8746,15.8682995,2.2732,-9.3461,1.9109999,jog
-1.9192164,-4.8655243,0.084997535,11.321899,-12.0582,-15.6366,2.1131,-9.2319,2.5448,jog
-2.5082824,-3.1404233,0.5701118,17.8762,-11.979099,11.560699,1.7959,-9.1051,3.1687999,jog
-2.0702398,-2.4802177,0.24342106,-8.0423,2.4608,-36.8535,2.325,-8.7469,3.7756,jog
-1.4968991,-2.8209581,-0.25893706,-22.4909,3.9871998,-5.1419,2.3873,-8.6944,3.8572,jog
-0.5645791,-2.321567,-0.68319166,-10.3047,-11.0794,-13.4291,2.224,-8.8574,3.5735,jog
0.10620329,-1.7848959,-1.0342124,0.31489998,-23.2298,8.5692,2.1464,-8.778999,3.8067,jog
0.8793667,-1.5350869,-1.0527827,0.9672,-11.785999,-12.78,2.3179,-8.9256,3.3362,jog
1.5329751,-1.9666195,-0.7605272,-0.4878,-3.9048,-1.6453999,2.5374,-9.0301,2.8614,jog
2.3605053,-2.6268253,-0.34780923,0.5826,-5.9790998,6.8954997,2.7711,-9.1329,2.254,jog
2.9106681,-2.3988154,0.07941248,1.9976,-8.448999,5.9627,2.7879,-9.2617,1.6177,jog
3.0328062,-2.2520158,0.33489376,1.5145999,-4.6135,7.0554,2.81,-9.3315,1.0938,jog
3.198281,-2.333453,0.31916836,1.3791,0.23279999,8.0409,2.9161,-9.3432,0.6085,jog
3.4130611,-2.4716306,-0.029112091,-1.4925,3.7512,5.7792997,3.0516999,-9.3115,0.389,jog
3.8862026,-3.1021657,0.16500343,-6.0116,5.1562,4.0383,3.2559998,-9.2455,0.2962,jog
3.722438,-2.7643747,1.688222,-8.7563,6.3073997,2.4931,3.4803,-9.161099,0.36049998,jog
2.8850815,-0.44352308,2.4287827,-10.0928,6.3942,5.0439997,3.6204,-9.1008,0.4869,jog
2.1654475,0.45108035,2.4355023,-9.2761,6.2065,3.2552,3.7254999,-9.0406,0.74579996,jog
2.4873037,-1.4040476,2.8891656,-5.8601,5.9586,-0.4197,3.7515998,-8.9987,1.0570999,jog
2.2117684,-2.7104614,3.3392336,-2.4728,6.5554,-2.1976,3.7477,-8.948299,1.4326999,jog
1.9574217,-3.6972706,3.6157115,-1.8547,4.4157,-3.4847,3.767,-8.8679,1.8274,jog
1.7268811,-4.467589,3.5036786,-8.0914,-6.7833,-4.5745,3.8844,-8.7111,2.2797,jog
1.8226473,-5.9601946,3.1496735,-10.7831,-18.3988,4.5049,3.9968998,-8.5498,2.6636,jog
1.9377693,-6.5969954,3.0472052,-4.7313,-19.0977,1.2739999,3.8683,-8.468699,3.0800998,jog
1.2164944,-5.520511,2.5092947,-3.9866,-13.7458,-3.3005998,3.4865,-8.4564,3.536,jog
0.1850049,-4.2082334,2.0261877,-5.061,-14.1212,-2.039,3.0407999,-8.4536,3.9317,jog
-1.2317835,-2.6337368,1.7186606,-7.6823997,-15.2058,-2.7758,2.6318998,-8.4085,4.3057,jog
-2.461019,-0.4489685,1.2275424,-7.5772,-17.3057,-4.3371997,2.3111,-8.3778,4.5431,jog
-3.1624143,0.84384924,0.80510294,0.24059999,-14.8152,-9.0561,2.0736,-8.3578,4.6921997,jog
-2.95383,0.49247956,0.22163936,3.8098998,-9.1353,-11.6003,1.8973999,-8.3302,4.8141,jog
-2.0028875,-0.41622612,-0.24825563,3.7214,-2.2226999,-11.970699,1.9467,-8.2801,4.8803997,jog
0.087371185,-2.3597374,0.06574655,5.2924,5.7514,-9.5036,2.0918999,-8.2129,4.9337,jog
2.6251323,-4.4050016,0.46188393,6.8255,8.4657,-8.7444,2.2357,-8.2009,4.8904,jog
3.6394827,1.5180001,0.5415059,6.7314,9.6602,-7.884,2.3004,-8.2676,4.7458997,jog
0.40828487,-0.58739054,0.8901528,5.7967997,12.0383,-7.0969,2.2544,-8.4588995,4.4196997,jog
-0.39308307,-2.243167,0.60723495,2.6339998,11.2245,-6.3645,2.0633,-8.7434,3.9325,jog
-1.6703324,-0.14831808,-0.20186478,1.4848,8.344999,-2.8790998,1.8786999,-8.9824,3.4577,jog
-1.1120714,0.11582005,0.8582831,-0.5419,4.0213,2.2877,1.8069999,-9.1796,2.9391,jog
-1.3007765,-0.7295127,0.9583254,-3.4808998,-0.0755,9.135,1.8823999,-9.2897,2.5152,jog
-1.9747702,-0.87893033,-0.123359874,-1.6237999,2.5412,18.813,1.9769,-9.288099,2.4478,jog
-3.0088778,-0.7424107,-1.5013497,-3.9743,4.4142,8.9472,2.1208,-9.1705,2.7519999,jog
-3.9853895,-0.049968775,-2.095739,2.3776999,-2.5019999,-26.4728,1.9077,-8.9422,3.5449,jog
-4.8475647,0.15439183,-1.0224488,3.817,-1.3021,-14.9667,1.8021,-8.9457,3.5909998,jog
-3.6730802,0.48696432,-0.16095427,-6.8325996,-6.7342,-10.381499,1.8508999,-8.9956,3.4384,jog
-1.643751,0.35646605,-0.3657861,-13.057099,-13.6928,-5.4645,1.8972,-9.097799,3.1304998,jog
-1.1777482,0.12836896,-0.6546381,2.2777,-9.2302,-3.9217,1.7330999,-9.1964,2.9312,jog
-0.6536782,0.76588535,-0.6244788,12.2894,-6.7718997,-5.7749,1.5967,-9.3011,2.6662,jog
0.98747236,-0.023439772,-0.61777675,11.987599,-3.7364,-4.1805,1.6631999,-9.3946,2.2682,jog
2.3040266,-0.3453134,-0.24664994,-0.31829998,-7.0557,-8.6167,1.9756,-9.4586,1.6736,jog
2.5702243,-0.9525483,0.72015774,-13.2985,-12.574599,-1.5145999,2.3739,-9.470699,0.91639996,jog
2.408659,-1.8417761,1.4268764,-9.9212,-13.3649,10.497499,2.5662,-9.4649,0.0053,jog
2.3232253,-2.392602,1.7858558,1.7933999,-14.5252,15.2759,2.5999,-9.4323,-0.66389996,jog
2.8883455,-2.141327,1.6260884,0.7502,-7.0252,14.5363,2.6820998,-9.3813,-0.9835,jog
3.2179158,-2.0665746,1.1953411,-4.7169,0.4707,14.2184,2.7948,-9.326099,-1.1755999,jog
3.8220093,-2.5570993,0.5928011,-11.088699,6.9012,10.9816,2.9296,-9.2745,-1.2534,jog
4.079707,-2.4982643,1.0443527,-16.439499,10.0745,5.5632,3.0435998,-9.2605,-1.0718,jog
3.582393,-0.037716564,1.4732499,-16.846199,8.8063,1.3409,3.0874999,-9.2869,-0.625,jog
3.6243157,1.21159,1.2722926,-10.2161,5.5411997,-3.4708,2.9592,-9.3462,-0.24579999,jog
3.3459532,1.0077705,1.433788,-2.3944,4.7819,-1.5439999,2.6885998,-9.4303,0.1024,jog
3.274133,-0.8595572,1.7154318,3.2098,5.9549,2.3990998,2.3308,-9.5147,0.45459998,jog
3.2711658,-2.9601133,1.5414922,6.1308,6.3676,1.606,2.0772,-9.5449,0.8652,jog
2.8595998,-4.496771,0.95321155,1.9187,-3.9643998,1.8197,1.8959999,-9.5196,1.3967999,jog
2.283903,-5.6264353,0.30606094,-3.6069999,-18.0768,1.6922,1.8712,-9.411099,2.0244,jog
0.9721833,-3.8403528,0.29222047,3.1582,-20.4867,4.4147997,1.7939999,-9.2568,2.6949,jog
-0.8040383,-1.7462891,0.36742672,8.967199,-16.7416,0.4439,1.5258,-9.089,3.3511,jog
-2.084918,-0.13039355,0.27742007,6.7971997,-16.638199,2.8018,1.1754999,-8.829599,4.1019,jog
-3.229278,2.1868103,0.19392353,-1.5281999,-14.8845,-1.4384999,0.87119997,-8.5925,4.6453,jog
-3.9830682,3.5004148,0.28239426,-4.1373997,-7.7662997,-3.4691,0.6658,-8.2969,5.1853,jog
-3.9681282,3.3776658,0.5801125,-1.227,-1.2061,-9.892799,0.7367,-7.963,5.6759,jog
-3.2626138,2.9217858,0.47453758,1.7875999,5.5664,-9.3442,1.115,-7.6453996,6.0393,jog
-1.6110436,1.7905507,0.29051006,3.4966,8.491799,-6.9758997,1.7595999,-7.3739,6.2208,jog
0.4823392,-0.09044296,0.2669132,3.6067,9.7053995,-7.8559,2.2379,-7.2538,6.2082996,jog
0.9448863,4.345922,0.75153875,0.6875,9.113,-7.2949996,2.3818998,-7.3577,6.0299,jog
-0.1502903,3.7868583,1.0268121,3.6487,11.7595,-6.1106,2.3529,-7.6407,5.6791,jog
0.25935593,-1.3569934,-0.0980526,0.2934,9.802,-7.6078,2.1092,-7.9681997,5.3131,jog
-1.7668318,1.3219124,-0.9388126,-1.0615,7.8328,-5.4128,1.7087,-8.382,4.7949,jog
-4.0516424,3.013276,-0.11143927,1.1471,5.9330997,-0.9798,1.3045,-8.7574,4.216,jog
-2.2622783,0.13829988,-0.20525073,0.41439998,3.0990999,4.2942,0.95839995,-9.0518,3.6490998,jog
-3.2243037,-0.20118411,-1.378304,-2.9348,0.5584,9.0117,0.797,-9.1588,3.4132998,jog
-4.138926,-0.57719785,-1.6651139,-8.2663,3.1574,0.33429998,0.75439996,-9.1296,3.5,jog
-4.463104,-0.034801867,-0.98612845,7.6201,3.4206998,-6.9837,0.30359998,-9.0693,3.7180998,jog
-3.3609107,0.92156875,-0.47273988,4.8807,-7.0989,-1.4405,-0.1637,-9.0819,3.6959999,jog
-2.4707406,2.1279752,-0.588333,3.0654,-4.4702,-10.080999,-0.044999998,-9.0629,3.7459,jog
-1.8016161,1.5487005,-0.9967575,-6.5824,-8.1287,-20.9574,0.0315,-9.1897,3.4231,jog
-1.0396228,1.9111879,-1.5537095,0.4843,-7.9797997,2.1894999,-0.1312,-9.4367,2.6647,jog
-0.31031954,1.2816477,-1.5389615,0.0958,-10.7317,-8.7031,-0.0958,-9.5581,2.1915,jog
0.36617008,0.14864969,-0.6793519,-0.8459,-12.690599,-5.6636996,0.1496,-9.6685,1.6331999,jog
1.3557369,0.6959151,0.29211575,-2.394,-12.104199,1.8749,0.52099997,-9.7645,0.7434,jog
1.0450333,0.2719223,1.1528947,-0.5378,-16.9706,14.850599,0.6947,-9.781899,-0.0426,jog
2.3280249,-0.6684262,1.15279,1.4616,-13.7169,12.031899,0.7938,-9.750299,-0.6857,jog
3.3669844,-2.1317801,0.40592867,4.0838,-2.6513,14.6036,0.94689995,-9.6952,-1.1293,jog
3.997729,-1.9658691,0.17807594,-0.16929999,5.7834,8.3877,1.1794,-9.6276,-1.4446,jog
3.9914458,-0.81398666,0.03785619,-7.8707,10.0344,2.5337,1.5356,-9.5538,-1.5921999,jog
3.8971632,1.5524354,0.30730012,-14.167299,8.6383,10.825999,1.8697,-9.4915,-1.6078,jog
3.352952,-0.10264281,1.0645287,-16.7328,5.2794,6.6517,2.0032,-9.4767,-1.5325999,jog
3.3101392,-0.187396,1.026079,-10.8421,5.7209997,-1.7435,1.9670999,-9.526,-1.2473999,jog
4.4758444,0.056426495,0.8176693,2.1011,7.955,6.8823,1.7529,-9.5927,-1.0375,jog
3.6493614,-0.03323107,1.0369176,6.5118,6.8739,3.7687,1.5196999,-9.668799,-0.6109,jog
2.9227633,-1.8253351,1.2975999,4.3485,4.3477,4.9147997,1.4275999,-9.7021,-0.0213,jog
2.6106634,-2.949362,1.3385279,2.9772,3.4136,2.9008,1.4063,-9.6800995,0.6982,jog
1.8269583,-3.5661266,1.3230817,-1.2709999,-6.3518996,2.6583,1.4181,-9.583799,1.5192,jog
1.0621027,-3.6886487,1.0676179,-2.9606,-19.6264,-2.6963,1.3131,-9.46,2.2256,jog
-0.08283333,-2.197858,0.8454724,-0.5201,-22.9482,4.453,1.1183,-9.315599,2.8529,jog
-1.6086001,-0.2258805,0.65633106,0.75339997,-20.3134,1.1481999,0.9234,-9.1065,3.5196998,jog
-2.9935713,2.1416936,0.47164032,6.6555996,-18.7798,-2.0654,0.78749996,-8.8062,4.2425,jog
-3.9269035,3.7529814,0.32691762,2.674,-13.5866995,-0.078,0.61109996,-8.4879,4.8733997,jog
-3.9388764,3.6552432,0.29611257,-2.2579,-7.2208996,-4.7121,0.5809,-8.2048,5.3396997,jog
-3.1120791,2.824606,0.044296455,-2.2407,-1.7265999,-8.7734995,0.69119996,-7.9329,5.7237,jog
-1.886666,1.321284,-0.1476025,2.1984,4.8181,-9.601399,0.9004,-7.7405,5.9533997,jog
0.019425515,-0.5288697,0.15474088,5.5692997,10.1944,-9.715099,1.207,-7.625,6.0474,jog
1.1072195,-0.97073466,0.5692566,4.7611,12.8312,-9.5848,1.3288,-7.6533,5.9858,jog
0.9727942,5.9216576,0.916996,3.9636998,15.7532,-9.231299,1.2534,-7.8588,5.7304,jog
1.1226307,2.8874204,0.8393463,1.0797,14.292399,-10.4487,0.91099995,-8.2319,5.2511997,jog
1.5361689,-2.419131,-0.33744195,0.4165,10.481,-7.9311,0.5248,-8.5883,4.7047997,jog
-1.005554,0.67580897,-0.69139475,0.9159,6.2872996,-3.4501998,0.1529,-8.9351,4.0386,jog
-4.3182063,2.9394486,0.68495446,-0.3443,1.52,0.514,-0.0674,-9.1692,3.4772,jog
-2.4897122,0.7613126,-0.11320206,-2.4026,-1.5519999,8.9064,-0.1275,-9.2941,3.1262,jog
-3.382291,-0.08899434,-1.8211288,-4.6232,0.58419997,15.2367,-0.1231,-9.2925,3.1311,jog
-4.37006,-0.2668783,-2.0582669,-8.3619995,5.2987,6.3880997,-0.1697,-9.211599,3.3595998,jog
-4.969563,0.6301337,-2.0412848,12.3461,-4.8199,-3.9455,-0.686,-9.1446,3.4747999,jog
-4.308415,0.09925687,-1.6866862,11.625299,-9.337,-2.8053,-1.044,-9.0504,3.6290998,jog
-3.3062818,1.6028755,-1.4157937,-0.8182,0.52599996,-8.7554,-0.7998,-8.9401,3.9501,jog
-2.3465078,2.6582062,-1.333833,-7.1053,-1.8583,-24.7065,-0.72029996,-9.036799,3.7398999,jog
-1.5864868,2.7884078,-1.3443398,6.2781,-7.3401,-2.2673,-1.0412999,-9.3115,2.8948998,jog
-0.12733923,1.9693422,-1.5909898,3.491,-15.867399,-8.0501995,-1.0589,-9.4337,2.4603999,jog
1.4177135,0.25139722,-1.0598861,-1.0177,-12.022699,-6.2893,-0.70809996,-9.6107,1.8174,jog
2.100521,1.266917,0.32515484,-0.48409998,-8.1048,-4.2615,-0.2611,-9.7628,0.88799995,jog
1.2485387,0.078016214,1.5007737,1.9552,-15.427099,7.5392,0.1335,-9.8053,-0.0862,jog
2.2903607,-1.629771,1.3504834,2.2064,-18.9826,18.3301,0.4315,-9.7606,-0.8448,jog
3.243677,-3.2687922,0.6186494,0.43989998,-8.3692,13.915999,0.77599996,-9.6553,-1.5302,jog
4.073633,-2.5210583,0.27897343,-1.1243,2.2231998,13.4925995,1.1243,-9.548699,-1.9304999,jog
3.8984022,-0.7646113,-0.001850049,-4.5162,9.6456995,5.1872,1.4564999,-9.4594,-2.1373,jog
3.5112708,1.6438035,-0.08454375,-15.8636,10.029099,14.590099,1.8399999,-9.4015,-2.0964,jog
3.1372817,-0.046722464,0.49722683,-24.408499,6.0422997,0.51559997,2.0493999,-9.4158,-1.8198999,jog
3.5416744,0.031049408,0.9461779,-13.717799,7.0639997,-4.3168,2.0283,-9.496099,-1.3708999,jog
4.4517937,0.31503192,1.0342298,3.1201,7.652,2.8067,1.7439,-9.5838995,-1.1298,jog
3.6341596,-1.227298,1.1400142,8.5004,7.0908,4.536,1.4533,-9.67,-0.74079996,jog
3.231896,-2.9291687,1.0062522,7.2783,4.7946997,7.9684997,1.3024,-9.7176,-0.2017,jog
3.0705054,-3.66472,0.61377996,6.8856997,3.2647,5.1285,1.2537,-9.7077,0.5985,jog
2.1729174,-3.8437736,0.5657834,1.3808999,-7.6759996,4.2117,1.2667999,-9.6424,1.2602999,jog
1.1416723,-3.271253,0.7343473,-4.4856997,-27.2874,-3.5535998,1.2298,-9.5266,1.9748,jog
-0.20453514,-1.8912562,0.8240921,-5.4135,-29.2815,5.5915,1.1378,-9.3959,2.5674999,jog
-1.7849308,-0.21823597,0.946143,1.8838999,-18.0716,-2.5997999,0.95989996,-9.2104,3.2273998,jog
-3.323456,2.6486418,1.0032327,8.448999,-14.2685995,-4.9909997,0.7495,-8.9044,4.0397,jog
-4.2903857,3.3879285,0.66228265,3.3720999,-9.2274,-1.6503999,0.64849997,-8.5715,4.7198997,jog
-3.803404,2.3983443,0.2870892,-1.3058,-4.2757,-6.8114,0.75659996,-8.2963,5.1737,jog
-2.5968754,1.3798747,-0.05000368,-1.1599,-0.4084,-9.5987,1.0519999,-7.9761996,5.6074,jog
-0.7073645,0.14990632,-0.16180947,1.283,4.7988997,-9.934199,1.4038999,-7.7409,5.8546,jog
1.0063045,-0.9871757,0.19704767,2.2361,9.5903,-10.9994,1.6766,-7.6288996,5.9293,jog
1.0337062,1.8253525,0.7287099,-0.3509,12.447499,-10.088799,1.7729,-7.6814,5.8328,jog
-0.56765085,6.9770236,1.0512292,1.4024,16.913,-8.2244,1.6374999,-7.9399,5.5178,jog
3.1553981,-4.994155,0.033684853,-0.3845,13.991099,-11.3477,1.2377,-8.2836,5.1008,jog
1.8251956,4.58299,-1.3591053,0.6989,9.2953,-4.3226,0.80149996,-8.7069,4.4403,jog
-3.9230638,1.9679111,0.05857325,1.1829,4.5329,2.3508,0.5528,-9.0244,3.7979,jog
-4.765866,3.0619183,1.3032373,-0.9734,-0.44039997,13.058399,0.46339998,-9.2093,3.3381999,jog
-1.9821705,0.36760125,-1.5797324,-3.0038,-3.014,9.8632,0.48349997,-9.2541,3.2089999,jog
-3.9923534,-1.0880557,-2.040918,-4.7585,4.4235997,10.5308,0.5122,-9.1897,3.3848,jog
-4.0801435,-1.6193514,-1.8628597,2.9129999,7.6157,-23.3878,0.225,-9.116099,3.6076999,jog
-3.7540636,-0.13482669,-1.280775,23.019,-18.494,7.1953998,-0.3951,-9.1508,3.5036,jog
-3.1050804,1.1027164,-0.98766434,-1.7156999,-6.296,-8.7994995,0.019199999,-8.8846,4.1512,jog
-2.5275683,2.635552,-1.3456838,-11.2268,1.6446999,-23.1871,-0.119399995,-8.7446995,4.4368,jog
-1.2479453,2.160927,-1.6179551,-2.9455,0.1312,-7.9463997,-0.2906,-9.065,3.7294998,jog
-0.25136232,1.2336336,-1.8718656,6.8020997,-15.907499,-8.5164995,-0.73179996,-9.3642,2.8188999,jog
0.41289255,0.12826425,-1.1049854,-2.9984999,-20.8447,-9.5898,-0.4533,-9.4872,2.4407,jog
1.2826425,0.9675756,0.14910348,-1.1888,-11.3835,-0.8962,-0.0173,-9.6615,1.6808,jog
1.0923492,0.8466418,1.1742924,1.6633999,-13.889,8.2997,0.4253,-9.7646,0.80079997,jog
2.1136112,-1.0812315,0.934554,5.5164,-12.8988,15.5911,0.6519,-9.783899,0.1387,jog
3.036646,-2.7082798,0.21219712,3.3683,-5.1761,14.622399,0.8484,-9.759399,-0.4518,jog
3.7655828,-2.3821125,-0.018744836,0.49179998,2.5397,8.354199,1.1458,-9.6986,-0.89129996,jog
4.0006437,-1.3678669,-0.068626344,-6.0024,8.925099,0.3595,1.5012,-9.6311,-1.0754,jog
3.5663185,0.2836509,-0.5342802,-14.5859995,9.4369,11.3986,1.9255999,-9.5546,-1.082,jog
3.9916902,0.66533697,-0.41868705,-19.8286,5.5014,8.9597,2.1178,-9.5220995,-1.0065,jog
3.0146198,-1.2523959,1.2139812,-11.5106,6.0495996,-1.4854,2.106,-9.5506,-0.72099996,jog
2.6949978,1.0560813,1.460701,2.1,7.9631,1.0957,1.8912,-9.6105995,-0.47779998,jog
3.5488827,-0.34939745,1.4395825,5.1193,7.1398997,3.1516,1.6865,-9.6602,-0.072299995,jog
2.7194674,-1.9369838,1.668238,2.3539,5.1277,4.9605,1.6568999,-9.6584,0.3743,jog
1.8006736,-2.9653318,2.1082878,2.3214998,4.7625,2.6518,1.6990999,-9.597199,1.0845,jog
1.5261159,-3.4982333,1.9744037,3.1086,3.188,2.8499,1.7456,-9.4937,1.7297,jog
0.8495739,-3.7376575,1.6528791,-5.9827,-11.473,-2.5683,1.8345,-9.326799,2.4113998,jog
-0.12789772,-2.985508,1.2962385,-9.1215,-30.000898,-1.3475,1.8743999,-9.0883,3.1715,jog
-1.407259,-1.7051867,1.0048559,-2.8985,-24.848099,0.5179,1.7414,-8.9258995,3.6694999,jog
-2.8024228,0.695793,0.57536525,2.1989,-17.0214,-3.0614998,1.4,-8.7602,4.1794,jog
-3.5213938,2.5310066,0.0012217305,4.4865,-14.577499,-5.9891,1.162,-8.4484,4.8417997,jog
-3.2407274,3.092706,-0.5293758,1.5119,-10.8279,-0.7784,1.0867,-8.2361,5.211,jog
-2.0207248,2.281599,-0.44732788,0.6577,-4.9729,-6.5790997,1.0583999,-8.089399,5.4414997,jog
-0.67748445,0.51241124,0.11201523,0.6174,1.1776999,-9.1797,1.1280999,-7.9638996,5.6101,jog
0.5394813,-0.74841464,0.5349434,3.5182998,9.3987,-10.4011,1.2868999,-7.9080997,5.6547,jog
0.99623394,0.6227684,0.85493207,5.125,14.1847,-9.6038,1.4159,-7.9575,5.5536,jog
0.20952678,5.9539986,1.2374734,5.3374,16.1997,-7.5828996,1.4389,-8.1387,5.2783,jog
-0.33517304,2.0508666,1.1065737,3.7477999,13.6254,-5.8817997,1.2731,-8.437699,4.8325,jog
3.6295693,-2.274513,-0.15732397,2.508,8.9159,-2.8827999,1.0418999,-8.759,4.2852,jog
0.26190412,-0.5275781,-1.0409144,0.3427,3.8456,0.815,0.8732,-9.033299,3.7156,jog
-6.035837,3.9153144,0.50106657,-0.115899995,0.3042,4.6556997,0.7926,-9.1694,3.3855999,jog
-2.007408,1.8697189,0.07489208,-1.9004999,-0.66359997,9.467999,0.74329996,-9.211599,3.2805998,jog
-2.9236882,-0.44835764,-1.5857712,-5.9609,3.8585,8.644,0.6947,-9.183499,3.369,jog
-3.9251409,-1.4074509,-1.9952604,-11.203899,10.556399,-10.1685,0.49499997,-9.124599,3.5588,jog
-4.591682,-0.39721948,-1.6592845,10.592899,2.1216,-19.602,-0.1586,-9.1137,3.6171,jog
-3.6852102,-0.14611897,-0.758171,9.657,-19.9266,-4.3659997,-0.5074,-9.1304,3.5423,jog
-3.0052998,1.669931,-0.5871462,5.9119997,-3.977,-20.473099,-0.3026,-8.849999,4.2137,jog
-2.0588777,2.0130627,-0.7139793,-8.938399,-0.7689,-28.484299,-0.0738,-8.831699,4.2619,jog
-0.49235737,1.5915657,-1.1829144,0.92029995,-2.7089999,16.171,-0.4888,-9.3138,3.0303,jog
0.038606685,0.9605245,-1.2767956,-0.5891,-18.5719,-15.696699,-0.59749997,-9.4162,2.6734998,jog
0.78536326,0.55682987,-0.3902207,-2.5397,-13.847899,-5.5936,-0.2747,-9.5703,2.122,jog
1.2001058,1.0547549,0.77696824,-4.605,-10.0802,-0.55399996,0.20179999,-9.719299,1.2895,jog
1.1523013,0.38339648,1.4566692,-0.91139996,-16.8723,8.0217,0.4996,-9.7821,0.48049998,jog
2.2035654,-1.1276572,1.0881604,1.1266,-11.8708,16.5117,0.6483,-9.7821,-0.24239999,jog
2.9131117,-1.7446136,0.6516361,4.4463,-2.261,14.152499,0.7805,-9.7422,-0.8056,jog
3.5055985,-1.478259,0.5142787,4.4540997,5.9135,8.3983,0.95909995,-9.689099,-1.1708,jog
3.670951,-0.9761801,0.25411993,-5.2763,9.406199,1.0842,1.2262,-9.6514,-1.2313,jog
3.5552182,-0.24640559,-0.06101671,-13.0773,9.921599,11.004399,1.4956,-9.6175995,-1.1977999,jog
3.1326914,-1.5207053,0.63837165,-15.5478,7.8873,3.7754,1.5831,-9.623,-1.0295,jog
2.770815,0.366013,0.8596968,-7.6597996,7.9226,-0.597,1.4521999,-9.6682,-0.766,jog
3.406935,1.2828344,0.9678898,2.3737,7.9705997,3.6179,1.1467,-9.726,-0.5092,jog
2.947128,-0.1338144,1.1608185,2.787,5.5425997,4.1647997,0.9492,-9.7595,-0.144,jog
2.3704538,-1.8316009,1.1012853,2.1057,3.6934998,3.3718998,0.82629997,-9.7638,0.3938,jog
1.9518889,-1.3451777,1.1276572,4.2538,3.337,0.9368,0.7475,-9.7211,1.0539,jog
1.1945382,-1.125912,0.4694412,0.2156,-4.7546,1.6725,0.72569996,-9.6219,1.7499,jog
0.29068458,-1.3441827,0.18202038,-3.6111999,-21.379099,-0.0717,0.7477,-9.4725,2.4253,jog
-0.6440614,-0.8281762,0.04775221,0.8713,-26.0295,7.2685,0.7075,-9.294,3.0479999,jog
-1.610904,0.8014203,-0.11608185,4.3501997,-17.2495,-2.5116,0.5432,-9.1401,3.5119,jog
-2.6729193,2.4820328,0.02745403,11.7998,-15.539499,-5.2276,0.2427,-8.8593,4.1979,jog
-3.1950521,2.4348042,0.33655185,8.814099,-13.8982,-1.435,0.070599996,-8.6276,4.6614,jog
-2.8548698,1.3631719,0.33178708,3.3318,-6.4192996,-0.8655,0.061199997,-8.3984995,5.0627,jog
-1.7056754,0.036861353,0.3933972,0.97569996,0.9482,-6.533,0.014699999,-8.1953,5.3856,jog
-0.003926991,-1.024421,0.6201504,1.5464,6.0151,-9.4623995,0.0618,-8.0647,5.579,jog
0.7807381,0.4269599,0.92832315,3.2981,11.141399,-9.5549,0.1831,-8.032599,5.6225,jog
0.94376934,3.1681392,1.3647602,2.8507,15.233999,-8.241,0.2677,-8.1046,5.5148,jog
-0.95350826,4.780352,1.6393703,-0.82159996,15.1297,-9.0724,0.19399999,-8.2944,5.2282,jog
1.5960687,-7.0590715,0.11526154,-3.7308998,11.203899,-8.935599,-0.0348,-8.5365,4.8266997,jog
3.0501199,7.569807,-0.76892227,-2.1761,7.5804,-4.8417,-0.3146,-8.8259,4.2630997,jog
-2.3950803,1.4223212,0.7851015,-0.9289,4.6291,1.2793,-0.4831,-9.0519,3.7415998,jog
-3.4291356,3.36859,1.1929849,-1.8059,1.3248,11.5933,-0.5574,-9.1701,3.4304,jog
-2.1604908,2.8290043,-0.72548103,-2.8021,-0.408,11.268399,-0.60069996,-9.163199,3.4415,jog
-2.9866073,2.1764605,-1.6042718,-3.75,4.4077997,5.4635997,-0.8002,-9.0954,3.5779998,jog
-2.8295975,1.0594498,-1.4868286,8.0243,10.342,-24.482899,-1.2773,-8.9985,3.6829998,jog
-3.0836477,1.4738607,-1.2300731,33.8527,-23.6721,10.0533,-1.9713,-9.0134,3.3228998,jog
-2.5748143,2.1726034,-0.7543313,-6.5636997,-25.651299,11.6414995,-1.5365,-8.9072,3.8037999,jog
-2.003062,3.6815276,-0.47991318,1.7434,3.6334,-31.777498,-1.9984,-8.6937,4.0738,jog
-0.9832487,3.7802436,-0.55962235,5.7114,11.5446,-5.0546,-2.2691998,-8.8576,3.5444,jog
-0.098401666,3.3831463,-0.81491166,8.9998,-6.4923997,-14.5918,-2.6548998,-9.002,2.8434,jog
0.48281044,2.6940029,-0.6044075,1.9821999,-20.2778,-0.22129999,-2.6687,-9.1518,2.3003,jog
0.9412212,2.1647842,0.09388126,-0.9097,-13.5587,-6.4529,-2.4343,-9.3692,1.5691999,jog
0.9802118,2.0103924,0.74148566,-1.1177,-5.5257998,0.1815,-2.2066,-9.4979,1.0442,jog
1.0852457,1.6933359,1.075402,1.4731,-5.2237997,6.7851,-1.9928,-9.5939,0.3933,jog
1.5750026,0.9002583,1.0690839,1.6308999,-7.9041996,9.1376,-1.8368,-9.63,-0.2429,jog
2.2335327,0.0882613,0.95026195,2.4967,-2.4143,6.8767,-1.722,-9.6282,-0.7083,jog
2.8749936,-0.34229398,0.7974235,0.5484,5.1871,6.0621,-1.5487,-9.629499,-1.0214,jog
3.2327685,-0.2844014,0.32035518,-5.4186997,8.5426,3.0792,-1.3184,-9.6508,-1.1374999,jog
3.6974626,0.22509511,0.60992277,-8.4695,9.196,4.631,-1.1409,-9.676499,-1.1104,jog
2.1756926,0.64407885,1.9648393,-7.6924,8.8801,3.3109,-1.1139,-9.693999,-0.9769,jog
2.9742854,2.615271,2.2580895,-4.5646,8.194,3.3051,-1.2212,-9.6945,-0.83379996,jog
4.0141177,0.8695579,1.1152829,-0.361,6.9563,3.7863998,-1.4041,-9.6825,-0.66789997,jog
3.538498,0.033841934,0.5508259,2.3272,4.8912,2.9496999,-1.6014999,-9.6671,-0.3902,jog
3.4963133,0.060353484,-0.26202628,5.0685997,3.4315,3.1553,-1.803,-9.6391,0.0808,jog
2.9102492,-0.12616985,-1.4130186,5.9596996,1.2004,4.1856,-1.9389,-9.5949,0.5902,jog
1.9519762,-0.26872835,-1.880697,-0.81939995,-15.993099,5.5271997,-1.995,-9.5237,1.2197,jog
0.79436916,-0.76276124,-2.004406,-6.2476,-37.6595,1.5223999,-2.1174,-9.3829,1.9097999,jog
-0.17339846,-0.882805,-1.9908797,4.4121,-8.529699,2.8443,-2.5096,-9.2007,2.2844,jog
-1.3089097,0.47102946,-1.8263125,16.5724,-9.0480995,0.7145,-3.0491,-8.9272995,2.6785,jog
-2.5147402,2.4471786,-1.7528342,20.552399,-14.297899,3.7870998,-3.3221,-8.5809,3.3911998,jog
-3.137648,3.4481075,-1.5901171,17.7748,-8.9158,4.9474998,-3.408,-8.3144,3.9275,jog
-3.2378302,3.5471897,-1.15375,8.1559,-2.8968,-3.3086998,-3.3702,-8.0376,4.4953,jog
-3.0100298,2.6828153,-0.6841167,4.8557,-4.2381,-4.9635997,-3.1102,-7.8338,5.0127,jog
-2.1005561,1.2299684,-0.24926792,5.1159997,-1.5827999,-8.4292,-2.8213,-7.753,5.3009,jog
-0.9779429,0.38364083,0.3761708,5.0854,3.0067,-6.8176,-2.4278,-7.7727,5.4642997,jog
-0.6975557,2.4102125,1.4214834,3.8630998,6.1249,-5.1429996,-2.0195,-7.8802996,5.4765,jog
-0.16022122,5.9399314,2.1821327,3.3767,8.4431,-5.4554996,-1.7782999,-8.090099,5.2495,jog
-0.6931575,6.3394547,1.3505881,1.6978999,8.7371,-7.0906,-1.7274,-8.433,4.6977,jog
4.134702,-6.474648,-0.11147418,0.0583,7.0056996,-8.2038,-1.7549,-8.7316,4.1046,jog
-0.71045375,3.1164076,-1.0133382,-2.6748998,3.7891998,-6.7173996,-1.8163999,-9.0162,3.4027,jog
-4.2395096,8.97834,-1.5144396,-4.0565,1.1265,0.089099996,-1.8568,-9.2268,2.7547,jog
-1.585649,2.690233,-0.45930085,-7.1884,-2.0722,6.8995,-1.8729,-9.3426,2.3186998,jog
-1.4947,1.8875213,-1.0966253,-8.5425,-0.7291,9.9999,-1.9603,-9.3716,2.121,jog
-2.8190732,1.209007,-1.1964581,-4.9375,6.9221997,3.6973999,-2.3585,-9.3347,1.8628999,jog
-3.5905437,1.5611272,-1.6284969,16.7927,14.061,-12.8418,-2.9064999,-9.2361,1.5544,jog
-3.8394277,2.822529,-1.8251431,19.3338,-1.9116,-8.072599,-3.3195999,-9.1698,1.0314,jog
-3.3314495,1.9068595,-1.9198622,6.5709,-3.274,-1.1427,-3.0895,-9.043,2.2017999,jog
-2.0589824,1.8899298,-1.6287587,3.2581,-10.0672,-19.7299,-3.0325,-9.1341,1.8817999,jog
-1.1143578,2.8369977,-1.1037811,-1.647,-11.9024,-6.3216996,-2.9717999,-9.328899,0.5554,jog
-0.34049627,2.9121516,-1.3550736,-5.9796,-12.2543,-5.7139,-2.8953,-9.3693,0.0554,jog
0.6459638,1.704506,-1.4574547,-2.6583998,-11.280399,-3.4929,-2.7057998,-9.4214,-0.2924,jog
1.7707762,0.5099503,-0.5886996,3.2108998,-6.5936,-0.4269,-2.4656,-9.45,-0.8871,jog
1.9253426,1.3825625,0.6545159,4.9329,-5.6191,0.6957,-2.1183999,-9.434,-1.6371,jog
1.5160627,0.58590704,1.6534376,4.6798997,-12.768499,9.7616,-1.6594,-9.3454,-2.4654999,jog
2.4301615,-0.74829245,1.5298684,-0.5201,-19.6082,17.27,-1.196,-9.2135,-3.1385999,jog
3.2659998,-2.2717903,0.71418875,-1.6061,-7.5463996,18.087599,-0.7277,-9.0954,-3.5934,jog
4.005321,-1.962518,0.06883579,-1.2692,5.5801,10.903,-0.35869998,-9.032,-3.803,jog
3.791623,0.2107834,-0.39992476,-9.259,9.803599,5.9702997,0.1094,-9.0093,-3.8716,jog
3.7148983,2.4232152,-0.48809877,-18.3114,7.3629,12.560599,0.5026,-9.0496,-3.7445,jog
3.6183817,0.80278164,0.40962878,-19.583,4.3154,1.8958,0.6464,-9.1697,-3.4159,jog
3.092933,0.42076397,1.2690988,-8.685699,5.5365996,-1.6154,0.6148,-9.3022995,-3.0426,jog
3.59105,0.22692771,0.88640034,4.9742,7.1205997,4.9897,0.31149998,-9.4154,-2.7244,jog
3.4271984,-1.6040797,0.9281486,11.809999,8.4024,6.98,0.0167,-9.5301,-2.3121,jog
2.5953221,-2.9275105,1.2561659,10.6747,6.0013,9.8396,-0.2111,-9.6592,-1.6804999,jog
2.196427,-4.001045,1.4023023,8.2132,3.9338999,7.6288,-0.2796,-9.7688,-0.8132,jog
1.553919,-4.3873215,1.3142154,1.4429,-4.7202,4.4705997,-0.20729999,-9.8033,-0.1459,jog
0.74178237,-3.8588357,0.9823586,-4.1535997,-18.101,-3.9380999,-0.121999994,-9.789,0.5744,jog
-0.37350047,-1.9999728,0.8027467,-6.1572,-26.0833,3.869,-0.2268,-9.710899,1.3479999,jog
-1.7462194,-0.055414204,0.5935516,-3.1390998,-17.463,-2.0502,-0.45979998,-9.613,1.8835,jog
-3.0648332,2.1929538,0.41994366,0.2172,-13.1412,-0.8594,-0.6389,-9.443399,2.5657,jog
-3.8844047,3.6449456,0.37693876,0.4416,-10.2675,0.6683,-0.726,-9.2084,3.2935,jog
-3.5937726,3.3924313,0.21252874,1.1484,-7.3795,-2.7484,-0.7463,-9.026899,3.7584999,jog
-2.408345,2.412621,-0.0049916417,3.0806,-1.6808,-7.4051,-0.678,-8.8317995,4.2081,jog
-0.6811322,0.31969196,0.14535102,4.6236,4.7377996,-7.3673997,-0.5244,-8.679999,4.5333,jog
0.5833763,-0.41598177,0.5334948,6.8104,9.6622,-6.7640996,-0.338,-8.603,4.6949,jog
1.2963433,3.0504866,0.9467887,6.4775,11.8298,-6.6633,-0.2895,-8.6329,4.6431,jog
-0.97429514,3.973818,1.2806004,6.6348996,14.2234,-5.9954,-0.3979,-8.8003,4.3087,jog
2.9937806,-5.0484695,0.23284437,3.8418,11.9817,-5.9248,-0.6252,-9.0201,3.7968,jog
1.4726739,2.0344255,-1.2789423,2.1397,8.8970995,-2.0767999,-0.94329995,-9.2796,3.0281,jog
-2.50926,1.9446982,-0.28801423,0.2121,4.8471,2.7484,-1.1633999,-9.4661,2.2824,jog
-4.3755403,2.5662448,1.0846872,-2.0348,0.78679997,7.2566,-1.2601,-9.5637,1.7653999,jog
-1.7104402,1.3255427,-0.8588765,-3.0063,1.1101,10.4352,-1.2987,-9.583099,1.6269,jog
-2.9872007,0.16334537,-1.7716488,-6.8125997,6.5446997,3.5530999,-1.3953999,-9.5455,1.762,jog
-3.8510516,0.5956983,-1.9544371,4.1686,11.4871,-27.7211,-1.6581,-9.4768,1.9002,jog
-3.998462,1.2548045,-1.4962708,15.9543,-5.1387997,25.3309,-2.0386999,-9.4632,1.5687,jog
-3.430078,1.1255628,-0.86468846,1.601,-17.837,6.3971996,-1.8853999,-9.3372,2.3306,jog
-2.6271744,2.642219,-0.57861155,-3.9910998,-6.506,-22.7528,-1.7457,-9.311999,2.5314999,jog
-1.437872,2.1840353,-0.68514645,0.98749995,-0.6247,-8.3516,-1.7818999,-9.4466,1.938,jog
-0.64603364,2.2121,-1.0794861,8.0784,-7.554,-6.5250998,-2.0375,-9.529099,1.102,jog
0.46149996,1.4948395,-1.2640023,3.9861999,-11.8824,-3.9197,-1.8973999,-9.5941,0.7227,jog
1.1176391,1.3333094,-0.50768137,-0.9435,-9.2456,-5.3975,-1.5570999,-9.6812,0.14109999,jog
1.2958895,1.8248464,0.40952405,-3.5709999,-7.9069996,-0.9095,-1.1360999,-9.7155,-0.6987,jog
1.066658,0.6326469,1.0764667,-2.3360999,-15.282,8.695499,-0.85099995,-9.665999,-1.4189,jog
1.5496603,-1.2096004,1.0932916,0.87869996,-13.098599,15.999599,-0.62369996,-9.5449,-2.1624,jog
2.1831102,-2.279243,0.6932622,3.7154999,-2.6645,14.9825,-0.4107,-9.4368,-2.6359,jog
2.7105486,-2.0302544,0.5084144,3.5240998,7.6152,10.5188,-0.16049999,-9.3608,-2.9187,jog
2.895763,-1.3437464,-0.025726153,-4.953,9.4748,8.7577,0.2066,-9.3179,-3.0502,jog
3.1193223,-0.48942524,-0.19645426,-12.1305,8.873899,11.5342,0.4998,-9.3348,-2.9631999,jog
2.4022887,-0.9546427,1.1464894,-16.5675,7.1959,4.2581997,0.6709,-9.3926,-2.7380998,jog
2.6831994,1.4017438,1.0988418,-11.584,6.1510997,-4.6802,0.6888,-9.4657,-2.4687998,jog
3.9088743,1.2440532,1.1288964,-1.4458,6.2732997,0.2481,0.5142,-9.529099,-2.2584999,jog
3.2210226,0.92231923,1.3905562,3.6295,6.3276997,4.2365,0.2539,-9.6031,-1.9711,jog
2.2962425,0.6588967,1.1312526,6.4138,6.1291,7.5846996,0.019299999,-9.6889,-1.5144,jog
2.0833821,0.25467846,0.8118399,9.903299,6.0733,5.8238,-0.1162,-9.7508,-1.0382,jog
1.765226,-0.383763,0.16449729,3.0146,-6.9158998,3.5577,-0.1314,-9.794499,-0.46859998,jog
0.98427844,-1.1513239,-0.16114625,0.2866,-23.479599,3.5407,-0.0905,-9.804,0.20539999,jog
0.20083503,-1.4625684,-0.2449046,1.6681,-21.2167,7.6347,-0.2854,-9.782,0.6322,jog
-0.9842959,-0.24406683,-0.17366026,5.1829,-14.2418995,-0.055999998,-0.5247,-9.7254,1.1445,jog
-2.3943124,1.8810287,-0.11964232,14.441199,-15.7971,2.0679998,-0.78059995,-9.592199,1.8838999,jog
-3.7217925,3.502422,0.20919517,13.667299,-12.5117,3.5612,-1.0854,-9.4256,2.4796,jog
-3.7598407,3.030171,0.381337,5.7453,-5.9351997,0.0976,-1.3323,-9.274799,2.8932998,jog
-2.5028546,1.1840663,0.053023104,1.6150999,-0.70269996,-4.6228,-1.4973999,-9.1234,3.2695,jog
-0.6380051,-0.274645,0.28801423,2.6776,3.0444999,-8.4258995,-1.5008,-8.9972,3.6009998,jog
0.29099876,0.28457594,1.0374761,4.2207,7.4284,-8.8122,-1.3865,-8.9289,3.8107998,jog
1.2569338,1.7223781,1.3674306,4.4762,12.3031,-6.5523996,-1.2301999,-8.9198,3.885,jog
2.0136561,4.913259,1.6894788,3.3379998,16.393,-5.6071997,-1.1804999,-8.998799,3.7145,jog
3.4422605,0.004310963,1.2609829,-1.7799,14.1205,-7.0674,-1.2895,-9.168099,3.2329998,jog
1.3138314,-1.3206383,-0.36128315,-2.513,9.05,-5.8269,-1.5273,-9.3736,2.4436,jog
-3.2262585,4.5277157,-0.7796386,-0.66969997,3.3855,1.0720999,-1.7229999,-9.5147,1.6344,jog
-4.0109935,4.575852,0.41460297,-3.6181,-0.7741,9.7996,-1.7657,-9.581699,1.1151,jog
-1.1597538,3.1508603,-0.46663123,-5.5790997,-2.6046999,14.5898,-1.8149999,-9.5849,1.0027,jog
-2.9167418,1.2176464,-1.4459704,-2.5309,2.949,15.054899,-2.0191998,-9.5391,1.0476,jog
-3.2741678,0.73989743,-1.7509317,3.5535,3.077,-0.4468,-2.3179,-9.4514,1.2117,jog
-3.4810941,1.6937373,-2.0166407,19.5791,-8.0633,-5.7532997,-2.7607,-9.314,1.3403,jog
-3.257849,1.9821355,-1.6546245,20.9004,-1.2480999,5.8602,-2.9935,-9.1272,1.9751999,jog
-2.6737223,2.940234,-1.0613521,1.6847,4.6303,-14.8251,-2.8713,-9.092299,2.2921999,jog
-2.0030968,3.068376,-0.77850413,-3.116,-7.1057,-23.3386,-2.8953,-9.271299,1.3521,jog
-0.8599935,3.2186837,-0.77101666,6.0785,-20.419899,7.8602996,-3.0384998,-9.3138,0.436,jog
0.1529083,2.3816066,-1.0404606,-0.32889998,-15.983199,-8.8073,-2.9661,-9.347199,0.030299999,jog
0.68692666,1.7020625,-0.69556606,1.2365,-6.8465,-3.4740999,-2.6878998,-9.4128,-0.5858,jog
1.1599982,2.136283,0.058241636,2.4029,-4.5822997,0.7894,-2.3441,-9.441199,-1.2405,jog
1.2914214,1.7625556,0.8737991,-0.003,-14.797299,5.7841997,-1.9092,-9.4152,-1.9693999,jog
1.9530408,0.6369405,0.9735621,-2.741,-15.4922,13.9136,-1.466,-9.3087,-2.7143998,jog
2.7369905,-0.7830594,0.6296275,-1.3589,-6.0195,14.3884,-1.1317999,-9.190499,-3.2285,jog
3.506122,-1.0383836,0.5113291,0.6731,5.6019998,13.5398,-0.7417,-9.054,-3.6938999,jog
3.6736913,-0.05906194,0.36789796,-1.966,9.974199,4.4746,-0.39729998,-9.0034,-3.8665998,jog
3.672068,1.5092909,-0.26565656,-8.691999,8.6666,11.3413,-0.025999999,-9.0196,-3.849,jog
3.617666,0.3020467,0.3229732,-13.355599,6.5841,8.7976,0.2539,-9.075,-3.7078998,jog
2.9288545,1.9399859,0.6072524,-9.561999,5.6203,2.4264998,0.383,-9.1507,-3.5052998,jog
3.9624734,2.0915678,0.5749638,-1.0769,6.2436,4.9121,0.3414,-9.2444,-3.2547998,jog
3.9361713,0.44465753,0.48754027,2.3257,6.0176,4.7042,0.1847,-9.3813,-2.8507,jog
3.0377455,-0.9491973,0.57304394,3.2896,4.8859997,7.3262997,0.024899999,-9.5246,-2.3346999,jog
2.569526,-1.4101387,0.348071,8.5056,4.8767,7.0829,-0.1013,-9.6525,-1.7285,jog
1.9000003,-2.2209315,0.09564404,8.7551,-2.5156999,6.6341996,-0.1743,-9.752399,-1.015,jog
1.059729,-2.4352927,0.14645058,3.5152,-20.344099,1.1637,-0.1025,-9.801499,-0.30069998,jog
-0.082920596,-1.1896862,0.36997488,3.0591,-31.469599,11.0463,-0.1662,-9.7967,0.4078,jog
-1.3901722,0.26584855,0.2971423,2.5634,-19.0745,-1.3018999,-0.3274,-9.7471,1.0273,jog
-2.8379402,2.4685936,0.3528881,6.6085,-13.9885,1.4142,-0.4793,-9.6455,1.7041999,jog
-4.2171693,3.904511,0.33145547,5.0041,-10.3524,0.82269996,-0.5911,-9.4765,2.4526,jog
-4.7574706,3.054082,0.21411699,1.6764,-5.5543,-0.5736,-0.64669997,-9.3026,3.0351,jog
-3.8730426,1.5410908,-0.33089697,1.8735,-1.3144,-6.4393997,-0.61829996,-9.129499,3.5268,jog
-1.8634706,-0.054262288,-0.39102358,3.2754998,3.5349,-7.112,-0.47079998,-8.9874,3.8953998,jog
1.0515085,-1.0660121,0.67299896,4.1756997,8.8426,-7.8009996,-0.3021,-8.9014,4.1039,jog
1.5588409,2.1515024,1.5457858,2.526,14.3684,-8.1952,-0.2704,-8.906099,4.0959997,jog
0.6178815,7.360472,2.1417809,1.0803,17.634699,-8.1504,-0.3448,-9.0146,3.8453,jog
0.9486039,-0.79897684,1.1567693,1.1281999,17.2445,-9.4081,-0.6084,-9.2325,3.2495,jog
2.2984939,-3.247988,-1.1500149,-0.1635,12.2998,-7.6073,-0.866,-9.4461,2.4882,jog
-0.54464746,5.8180027,-0.4389154,1.5493,5.5436,0.0865,-1.0296,-9.632899,1.5216999,jog
-3.4102337,2.481125,0.508746,-1.8084999,-1.5638,12.4005995,-0.99609995,-9.733399,0.6617,jog
-1.0489254,1.8866136,-0.38599703,-5.8297,-7.2574997,17.8357,-0.927,-9.7569,0.33589998,jog
-2.3000298,1.2690463,-1.6720778,-6.1689997,-0.74909997,20.885,-1.0486,-9.7342,0.562,jog
-3.192731,0.9710663,-1.2601626,1.6667999,8.5307,-12.9872,-1.4117999,-9.6683,0.83669996,jog
-3.3159685,1.2434075,-1.0849316,33.052998,-8.9484,-11.394899,-1.8873999,-9.5959,0.7252,jog
-3.001757,2.2922282,-0.71120423,9.489699,-17.2577,41.602497,-2.0955,-9.533999,0.93869996,jog
-2.1180444,2.4139473,-0.39596283,-5.1658,1.6674999,-33.836,-1.7967999,-9.5226,1.5035,jog
-1.4381688,2.5152986,-0.52539647,-5.5341997,6.2876997,-14.1896,-1.8697,-9.5534,1.186,jog
-0.43565163,3.164788,-0.73265433,5.9497,-3.4636,3.1329,-2.0075,-9.589,0.4367,jog
0.52682763,2.397838,-1.1796157,1.5622,-18.5835,-5.0248,-1.9447,-9.610499,0.1607,jog
0.95399696,2.187299,-0.7631452,-3.4204,-11.2904,-4.2616,-1.6200999,-9.6663,-0.3278,jog
1.4646803,0.87259483,-0.3576354,-3.8335998,-4.8809,1.3076,-1.3637999,-9.6623,-0.9741,jog
1.6222836,-0.03960152,0.15947074,-2.3939,-6.7931,4.5642,-1.0971999,-9.593699,-1.7105,jog
1.8907676,-0.1725607,0.3843564,0.0691,-11.840199,10.220699,-0.8929,-9.499,-2.2675,jog
2.490166,-0.49035025,0.123691484,4.5804,-9.135799,15.9393,-0.6773,-9.3889,-2.7494,jog
3.2483544,-0.70832443,-0.16261232,5.1459,0.7486,14.755799,-0.4583,-9.3196,-3.0172,jog
3.5951514,-0.12273155,-0.26001915,-3.3732,4.7272997,6.4511,-0.1277,-9.2972,-3.1167998,jog
3.3658326,0.8414232,-0.7990641,-11.065499,5.7488,5.3205,0.239,-9.328199,-3.0159,jog
3.7415147,0.25605726,-0.1762608,-12.6767,8.6964,4.1149,0.536,-9.3828,-2.8007998,jog
2.8136628,-0.46729445,1.00894,-10.1804,8.2825,4.4358997,0.6385,-9.4495,-2.5432,jog
3.2256825,2.3901587,0.1747249,-2.2538,8.420899,5.7072997,0.6063,-9.529099,-2.2357,jog
3.747379,1.8532081,-0.5007524,3.3086998,8.6305,5.0432,0.5256,-9.611199,-1.8756,jog
3.2780426,0.7657283,-0.43399358,5.2611,7.4189,3.9199998,0.48549998,-9.693999,-1.3996999,jog
2.1985214,0.3936241,-0.3111224,7.0199,5.9091,3.9810998,0.5017,-9.7631,-0.7743,jog
1.7396395,-0.41420153,-0.96453875,4.0133,1.0629,2.3555,0.55649996,-9.7908,-0.0018999999,jog
1.1576769,-0.97593576,-0.9556725,-3.4385,-13.0661,-1.1689,0.6926,-9.7637,0.6001,jog
0.30400145,-0.95492196,-0.73148495,1.2758,-23.6936,5.0674,0.72459996,-9.6784,1.4047999,jog
-0.5338264,-0.09978047,-0.6020513,10.694699,-18.656,7.5067,0.5633,-9.6066,1.888,jog
-1.3353165,0.6411467,-0.54068553,10.1472,-13.589499,2.3072999,0.4243,-9.465799,2.5273,jog
-2.145865,1.1264879,-0.2676288,7.552,-13.8199,3.0906,0.4109,-9.2452,3.2444,jog
-2.633021,1.9182216,0.053040557,5.7306,-8.2079,0.091699995,0.4377,-8.983,3.9092999,jog
-2.844049,2.3615701,0.38531634,1.8851999,-3.8416,-2.9017,0.4585,-8.8187,4.2648,jog
-2.8880486,2.1662502,0.76846844,0.4445,-1.064,-4.7995996,0.6635,-8.6543,4.5643,jog
-2.3749568,1.9006112,0.87683594,1.4741,3.9417999,-5.1106997,0.91859996,-8.5313,4.7479,jog
-1.3682159,1.5325387,0.82135195,2.9847,9.3797,-4.4075,1.134,-8.4872,4.7801,jog
-0.8259945,2.916253,0.8228006,0.078,10.269,-5.2558,1.2458,-8.523399,4.687,jog
-2.1401052,5.07807,0.6706253,-2.6134999,7.9946,-3.8955998,1.2797999,-8.6321,4.4742,jog
0.231675,-0.1418429,-0.018413223,-2.3964,8.4177,-2.7062,1.2293999,-8.809999,4.1282,jog
0.49410272,2.5161889,-0.16950637,-1.6233,8.2916,-3.6594,1.0545,-9.0369,3.6594,jog
0.0064751715,5.915043,-1.3836621,-1.4721999,7.1212997,-2.2321,0.84459996,-9.219999,3.2324,jog
-0.52448887,0.032306045,-0.9210975,-0.7389,5.5292997,0.44239998,0.5722,-9.403,2.7251,jog
-2.8688326,2.5173583,-0.5398827,-1.2716,4.5383,1.4636999,0.31059998,-9.5299,2.2921,jog
-1.5173368,0.99237674,-1.2275075,-0.2636,8.8667,-2.3896,0.0871,-9.5924,2.0365999,jog
-2.5614278,-0.86622435,-1.520269,5.6180997,16.3218,-13.8097,-0.18519999,-9.623899,1.875,jog
-3.2332225,-0.9831614,-1.8124022,13.878799,8.1799,31.3856,-0.4829,-9.6901,1.4273,jog
-3.9001126,-0.10899581,-1.4336134,-2.6431,-31.2297,19.1006,-0.47529998,-9.683599,1.4735999,jog
-3.414597,-0.18352138,-1.4922739,8.2755995,-12.6495,-19.0296,-0.5185,-9.6703,1.5443,jog
-2.112878,1.4719932,-1.6601397,-4.9438,5.8587,-9.7858,-0.43019998,-9.6833,1.4893999,jog
-1.1310257,1.5407069,-1.4004173,-12.5253,5.3308997,-8.3993,-0.25259998,-9.704599,1.3874999,jog
0.35459855,1.8892665,-1.8938044,-7.9625998,-12.4368,-5.5555,-0.19649999,-9.7751,0.76,jog
0.87086695,1.3073388,-1.9928868,-3.6402998,-15.5348,-3.8446999,0.0315,-9.7957,0.4614,jog
1.6429832,0.64388686,-1.4694451,-1.5584999,-8.5659,-2.8214,0.3032,-9.8019,0.0069,jog
1.8690382,-0.66638416,-0.20977113,0.97609997,-6.4853,1.2923,0.65169996,-9.764299,-0.6353,jog
1.8096098,-1.5696968,0.5918237,5.0147,-12.0102,12.8296995,0.9281,-9.662399,-1.3951,jog
2.5601187,-2.120924,0.44368014,0.7827,-17.328,16.6071,1.2078999,-9.5127,-2.054,jog
3.4506905,-2.7463803,0.07183775,0.99189997,-7.0639997,19.1225,1.5871999,-9.3719,-2.412,jog
3.728512,-2.040639,-0.09206612,0.4482,3.2451,13.4443,1.9248999,-9.266399,-2.5686998,jog
3.5785708,-0.34316665,-0.49375364,-8.0078,8.1437,6.1976,2.3688998,-9.2028,-2.422,jog
3.9270258,0.9775764,0.13582152,-17.877499,9.7088995,5.8722,2.7948,-9.1401,-2.1947,jog
3.422102,-0.39495057,1.265451,-22.8888,7.0118,-3.5760999,3.0892,-9.1202,-1.8567,jog
3.2852333,-0.7579441,1.524231,-10.508699,6.739,0.5852,3.1046999,-9.1711,-1.556,jog
3.8847888,-1.0289588,0.9985378,0.7761,7.8076,3.8769999,2.9503999,-9.259,-1.3175,jog
3.3172948,-1.7385749,1.2115552,4.8592,6.96,5.4255,2.8193,-9.342999,-0.96349996,jog
2.4473705,-2.6115363,1.5568162,4.6965,5.1208997,5.4516,2.7663,-9.3966,-0.46989998,jog
2.155307,-3.8725889,1.7514205,1.2738,1.6084,5.7263,2.7763,-9.4046,0.1184,jog
1.5943757,-4.565048,1.7645977,-7.2848,-9.708,0.7044,2.8816,-9.3364,0.83519995,jog
0.8394161,-4.1391354,1.3602922,-9.575,-21.4648,-3.3083,2.8378,-9.2593,1.5431,jog
-0.2843316,-2.3680103,0.80861104,-5.8155,-23.768,0.5039,2.6186,-9.201799,2.1536,jog
-1.9499866,-0.3987379,0.45204028,-1.0619,-17.3894,1.4498,2.376,-9.1179,2.7179,jog
-3.461878,1.730267,-0.11761774,0.98759997,-14.5299,-0.7926,2.2582998,-8.9275,3.3716998,jog
-4.129292,2.651836,-0.33494613,0.7816,-11.4121,-0.6548,2.1701,-8.7404995,3.8811998,jog
-3.679381,2.2591717,-0.3315253,-0.26229998,-8.2032995,-4.4116,2.1059,-8.5954,4.2253,jog
-2.3939807,1.0241069,-0.22617722,-0.3329,-2.8515,-9.2536,2.1374,-8.4946995,4.4091,jog
-0.48174578,-1.2164421,0.0922581,2.2175,6.8318,-7.0875998,2.2444,-8.4303,4.479,jog
1.1875918,-2.1688159,0.6466096,4.1334,13.183499,-7.1397,2.3976998,-8.4175,4.4233,jog
1.0260267,0.9926909,1.2525356,4.0710998,15.820299,-7.552,2.4601,-8.4751,4.2766,jog
-0.53466415,5.9668617,1.8879052,4.2971997,16.3237,-5.8978,2.4105,-8.6744995,3.8874,jog
-1.573135,2.3045502,1.0994004,-0.31469998,11.2016,-4.8747,2.3153,-8.896999,3.4134998,jog
4.975881,-7.8525677,-1.8755133,-2.3091,7.0199,-0.3367,2.211,-9.1381,2.7884,jog
-1.2342271,1.058228,-1.3338679,-2.5318,2.1487,2.8323998,2.1591,-9.3076,2.2080998,jog
-5.6968246,2.7987227,1.0196911,-2.4642,-1.3639,9.0904,2.1601999,-9.3939,1.8046999,jog
-1.2050102,1.4542781,-0.40870374,-6.5979,-2.5592,10.1556,2.1849,-9.414599,1.6613,jog
-3.19671,-0.2583611,-1.6372236,-10.1795,5.1945,8.6823,2.138,-9.4016,1.7910999,jog
-4.3904457,-1.2677723,-1.4384829,-10.8178,13.923599,-16.616299,1.8642999,-9.4126,2.024,jog
-4.5549426,-1.1247425,-0.9551489,20.473799,9.1672,-12.970099,1.1988,-9.5007,2.1141,jog
-3.2971714,0.15308283,-0.5413837,16.597599,-27.069,22.7657,0.92679995,-9.5784,1.8880999,jog
-2.2834666,0.9817826,-1.1661941,-1.4022,-12.544499,-41.276897,1.6376,-9.3047,2.6288,jog
-2.2773404,1.7802184,-1.4564947,-10.383699,5.7022,-18.253899,1.8323,-9.3209,2.4357,jog
-0.89582515,1.2990835,-1.7900621,1.2840999,0.0155,6.7267,1.5302999,-9.577,1.452,jog
0.29775316,0.3212802,-1.4586763,-1.7062999,-20.4504,-11.974899,1.569,-9.597099,1.2660999,jog
1.6585864,-0.44155085,-0.61563,-5.6148,-18.043299,-5.4975,1.8883,-9.6016,0.6432,jog
1.7102481,1.2234583,0.7470184,-6.5722,-12.0239,6.2517,2.169,-9.5604,-0.2501,jog
1.6225278,-0.4246735,1.3340424,4.3043,-11.533299,15.416499,2.3346999,-9.4528,-1.1674,jog
2.9304428,-2.4266012,0.7976678,5.4044,-10.4109,15.7344,2.4408,-9.3298,-1.7795,jog
3.4458559,-3.1259022,0.06085963,1.3744,-2.6172,13.0077,2.6952,-9.1800995,-2.1518,jog
3.91891,-2.107014,-0.1421047,-2.3653998,4.8431997,8.8771,3.0421,-8.9914,-2.4635,jog
3.740136,-0.7998146,-0.24485224,-13.0758,4.1433,9.4822,3.4261,-8.8309,-2.5391,jog
3.450481,1.098196,-0.85777694,-19.5753,6.3883,18.3996,3.6984,-8.7418995,-2.4638,jog
4.1099014,0.21542598,-0.52600735,-21.770899,4.8115,-0.1081,3.7854998,-8.773399,-2.2062,jog
3.0776439,-0.55960494,1.9948415,-8.596,8.9864,-4.0127997,3.7024999,-8.8981,-1.8122,jog
2.733465,-0.21944025,2.443967,4.1514,9.2051,3.6302998,3.4485998,-9.0482,-1.5512999,jog
3.569844,-2.1322863,2.3856556,6.4914,8.0441,7.7886996,3.2366998,-9.1816,-1.179,jog
2.8662145,-2.728665,2.6817334,3.3560998,4.3192,6.5491,3.1652,-9.2519,-0.7435,jog
2.0790884,-3.4028685,2.575844,1.6522,3.0017,3.9357998,3.1726,-9.278,-0.1504,jog
1.7720327,-4.68963,2.0165882,-1.7495999,-1.2336,3.2445,3.2206,-9.249599,0.49179998,jog
1.0235134,-4.9101524,1.5058701,-15.3728,-20.0301,-3.0621,3.3595998,-9.1348,1.1989,jog
0.041765727,-3.8139458,1.1439935,-13.892099,-36.1413,1.1407,3.448,-8.9692,1.9581,jog
-1.5207926,-1.6011825,1.0032327,-3.3109,-22.5646,1.9588,3.1148,-8.963699,2.4737,jog
-3.020397,1.3528919,0.4250924,-0.2857,-15.578899,-0.3425,2.6884,-8.9573,2.9510999,jog
-3.8298807,2.8391795,0.43938664,0.5416,-11.823299,-1.1154,2.4003,-8.849,3.4787998,jog
-3.4111588,2.3756375,0.38767254,3.4225,-6.2145996,-5.2037997,2.128,-8.76,3.8602998,jog
-2.194455,1.0544406,0.40922734,0.7876,-1.9893999,-7.9683,1.9483999,-8.6998,4.0849,jog
-0.28014278,-1.3544104,0.63648665,1.3857,4.8859997,-8.8168,1.9877,-8.6321,4.2077,jog
1.2345238,-1.6367698,1.001086,3.9203,10.6383,-7.2216997,2.1401,-8.6083,4.1816,jog
0.9212895,4.0440326,1.4207155,4.7562,14.5293,-6.7867,2.2554,-8.6552,4.0211997,jog
-2.5959504,6.1699834,1.714402,4.5042,16.378,-6.0182,2.2035,-8.8171,3.6841998,jog
3.4811115,-7.0229607,0.50694835,-0.5044,11.014199,-6.3402,2.0342999,-9.043099,3.202,jog
1.903142,4.066373,-1.3871353,-1.0333999,6.1935,-1.7454,1.7885,-9.282599,2.6083999,jog
-2.402882,-0.8984257,-0.805452,-0.4491,3.0978,3.4115,1.5964999,-9.462299,2.0212,jog
-4.6377935,1.862912,0.78984874,-1.3567,0.7628,9.8469,1.4743999,-9.559299,1.617,jog
-1.5525576,0.3774449,-0.83416265,-5.0806,1.2480999,13.7253,1.4031,-9.5837,1.5338,jog
-3.5651143,-0.36419785,-1.5803432,-9.816,9.3054,2.6469,1.2645999,-9.5702,1.7268,jog
-4.146536,-0.7568271,-1.9660087,5.9832,17.4112,-31.8498,0.84209996,-9.5658,1.9885999,jog
-4.100686,-0.2351482,-1.4348177,12.230599,-6.3561997,27.3023,0.2924,-9.6775,1.5586,jog
-3.2690191,1.1603123,-1.0722082,0.072,-19.486399,6.9336,0.4574,-9.551,2.1766999,jog
-2.564517,2.3821125,-1.0688745,-3.7538998,-7.4891996,-25.457699,0.5276,-9.4467,2.5786998,jog
-1.706007,1.7147336,-1.3012128,-3.6253998,2.6945,-17.4193,0.7227,-9.549399,2.1111,jog
-0.5350656,0.91273737,-1.8161024,2.9733999,-7.7999997,-0.8085,0.5078,-9.7146,1.24,jog
0.00143117,-0.293896,-1.308194,-0.14199999,-18.945599,-6.4244,0.66179997,-9.7387,0.9424,jog
1.1222641,0.0840376,-0.15090117,-0.6899,-12.545099,-3.2617,0.97419995,-9.755099,0.24129999,jog
1.1008489,0.7533888,0.9311157,-1.3149999,-11.849999,7.036,1.3542,-9.6951,-0.5832,jog
1.6753939,-0.70876074,1.2029158,-0.0865,-15.542999,16.5516,1.6262,-9.5718,-1.3807,jog
2.7097807,-2.0752838,0.75330156,-0.82909995,-9.3252,14.288199,1.8686999,-9.425,-1.9612999,jog
3.3221643,-2.1199641,0.27815312,0.251,0.71999997,12.5042,2.1711,-9.2713995,-2.3444998,jog
3.907094,-1.6125097,0.21216223,-3.3186998,7.9009,4.2553,2.4949,-9.126699,-2.5783,jog
3.721548,-0.057403877,0.045675267,-14.882999,6.9091,9.436399,2.9090998,-8.9881,-2.6306,jog
3.8413475,0.12217305,0.49097857,-20.2969,5.2988,14.4043,3.1058998,-8.917399,-2.6461,jog
3.0887265,-1.3856518,1.6181645,-15.336499,6.0232,-0.2959,3.1369998,-8.965199,-2.44,jog
3.385136,0.3426256,1.6857612,-3.4020998,8.6818,2.9157999,2.9903,-9.083799,-2.1705,jog
3.7725465,-0.6103242,1.3530664,5.1184998,8.8452,7.1777997,2.7659,-9.208099,-1.9312999,jog
3.017814,-2.1830578,1.3694726,4.1928997,6.1355,6.9421,2.554,-9.342299,-1.5387,jog
2.586962,-2.719764,1.7309303,0.759,3.3299,4.9395,2.4378998,-9.4493,-0.96779996,jog
2.1356895,-3.15196,1.5877783,-1.4015,-0.7618,4.568,2.3820999,-9.5056,-0.3708,jog
1.4269114,-3.8570905,1.4507874,-7.7179,-15.026999,-0.364,2.3732998,-9.5092,0.33449998,jog
0.652823,-3.2984629,1.1792666,-6.5246997,-27.3913,1.1708,2.2687,-9.4718,1.1435,jog
-0.6258925,-1.6168207,0.8012981,1.0618,-19.844599,3.9241998,2.0272,-9.4576,1.6164999,jog
-2.1879623,0.13950416,0.56115824,5.2373,-14.9021,-1.8851999,1.6959,-9.3888,2.2677,jog
-3.576808,2.8569992,0.28857273,3.9294999,-14.878699,-1.0088999,1.4541999,-9.2162,3.0193,jog
-4.1174235,3.5401385,0.21856758,-0.542,-11.9605,1.5008,1.356,-9.074699,3.4612,jog
-3.51059,2.7056966,0.042481314,-1.0961,-5.4756,-5.7102,1.2432,-8.9302,3.8567,jog
-2.2592938,1.674783,-0.0011693706,-0.41009998,0.5506,-8.2671995,1.2142999,-8.7979,4.1582,jog
-0.58044416,-0.4044277,0.15156439,4.2732997,8.7132,-7.7246,1.2868999,-8.7132,4.3118997,jog
0.550983,-0.907641,0.57615066,4.762,13.3461,-8.4373,1.367,-8.688,4.3381,jog
0.80676097,2.7217014,0.9876993,3.9696999,15.6376,-7.8525996,1.365,-8.7631,4.1849,jog
-0.5989272,6.481088,1.5892619,4.621,16.6491,-6.8708997,1.2433,-8.9705,3.7621999,jog
3.649117,-4.679245,0.67968357,0.42549998,12.4182,-6.8146,1.016,-9.2017,3.2351,jog
1.6654804,2.599057,-0.9329308,-0.15079999,8.2382,-1.4966999,0.74899995,-9.464,2.4577,jog
-3.436658,1.446878,0.069935344,-0.724,3.9239,3.2201998,0.6358,-9.6019,1.8889999,jog
-4.169382,2.4850872,0.48361328,-1.3445,0.67539996,7.9993,0.5796,-9.677899,1.4738,jog
-1.8057002,0.18414968,-1.6691805,-3.6801999,0.4876,11.2837,0.56159997,-9.696,1.357,jog
-3.7575018,-0.81663954,-1.7679138,-6.9477997,6.5385,10.4408,0.4754,-9.6865,1.4545,jog
-3.9177754,-0.9335068,-1.7962754,0.4371,5.4416,-15.594,0.20019999,-9.6682,1.6293,jog
-3.7658446,-0.07517133,-1.103816,13.1973,-22.147099,13.066299,-0.3114,-9.6852,1.5063,jog
-2.9569716,0.9707521,-1.0667976,2.9638,-7.0481997,-18.6328,-0.267,-9.544499,2.2361,jog
-2.2711794,1.9100709,-1.4537545,-5.2483997,4.0267,-15.750099,-0.2138,-9.469399,2.5405998,jog
-1.25833,1.244891,-1.6789544,1.5335,3.524,-6.8603997,-0.2979,-9.6335,1.81,jog
-0.16805775,1.602282,-2.051652,4.9283,-14.8568,-5.4497,-0.44669998,-9.7382,1.0661,jog
0.27159068,0.9026494,-1.4478728,-4.2887,-19.6106,-6.8419,-0.124199994,-9.7799,0.71279997,jog
1.0975503,0.5939006,-0.40200168,-3.6894,-9.4758,0.2987,0.2277,-9.8039,-0.0241,jog
0.99667025,0.84254026,0.84018403,-0.4538,-11.523,7.4863997,0.5715,-9.757299,-0.79829997,jog
1.3471323,-0.5511924,1.1444647,5.1979,-13.842,17.4173,0.7841,-9.6546,-1.5304999,jog
2.292612,-2.084918,0.63421774,3.5216,-7.4122996,14.1967,1.0482,-9.5139,-2.1345,jog
2.9438293,-2.1155834,0.16636479,2.1750998,2.6016998,12.207399,1.3748,-9.387899,-2.4792,jog
3.3130188,-1.5136892,0.09998991,-3.9882,7.2209997,6.6857996,1.7522999,-9.270599,-2.6748998,jog
3.127281,0.016580628,-0.053564154,-12.4709,9.0819,6.1782,2.2621,-9.170199,-2.638,jog
3.2018764,-0.16913986,0.61355305,-19.8513,7.2865,9.6051,2.5426,-9.120299,-2.5541,jog
2.285526,-0.10067059,1.9289902,-17.1097,6.1228,-2.1394,2.6448998,-9.1531,-2.3226,jog
3.081309,0.916612,1.7711775,-3.1648998,7.5832996,1.6933999,2.5275,-9.2407,-2.0955,jog
3.4741652,-0.70940655,1.4303322,5.5525,8.5844,7.118,2.2927,-9.349299,-1.8714,jog
2.6348538,-1.8973299,1.3595243,4.4484,6.9546,7.4058,2.1024,-9.455299,-1.5316,jog
2.6921878,-1.7054136,1.1713603,2.1617,4.8215,4.6777997,2.0158,-9.5385,-1.0591999,jog
2.055579,-2.2900116,0.89962995,-1.2965,-0.50699997,3.0251,1.9732,-9.5938,-0.4852,jog
1.6999507,-3.2938201,0.39287362,-8.2303,-15.0702,-0.5182,1.9834,-9.6032,0.1161,jog
1.1808374,-3.5175016,0.44224897,-4.4656997,-28.498798,5.0511,1.8669,-9.599899,0.7249,jog
0.41423646,-3.1209977,0.22029546,4.3567,-19.651,4.0657,1.4978,-9.621699,1.1611,jog
-0.6506762,-1.3241987,-0.0041538836,9.3232,-16.7923,-2.2087998,1.1306,-9.5777,1.7773,jog
