rotationRate.x,rotationRate.y,rotationRate.z,userAcceleration.x,userAcceleration.y,userAcceleration.z,gravity.x,gravity.y,gravity.z,class
-2.1992545,-1.5166562,1.4908079,-0.4357,0.84239995,-1.1329,3.8288,-8.9035,1.4958,wlk
-2.3838928,-0.5986828,1.3136919,-0.109,1.3354,-2.2705,3.4334,-9.0728,1.4369,wlk
-1.8622837,-0.7762701,0.79721403,-0.32299998,0.6245,-2.1222,2.9512,-9.254399,1.3474,wlk
-1.3634337,-1.1087204,0.1624378,-0.3365,-2.1202,-4.0327997,2.5332,-9.4025,1.1594,wlk
-1.2135448,-1.2495335,-0.28541368,-0.7272,0.0497,0.1424,2.1394,-9.5327,0.8479,wlk
-1.0508976,-0.8962964,-0.33115876,-1.1268,-0.2627,-2.9264998,1.7739999,-9.6321,0.49449998,wlk
-0.65809387,-0.424115,-0.49094367,1.0059999,-2.2788,-0.88439995,1.4749999,-9.695,0.0313,wlk
-0.84055054,-0.78663737,-0.12449434,1.6897999,-0.1127,0.6009,1.2128999,-9.7233,-0.3949,wlk
-1.3860881,-1.1779052,0.36295867,0.79209995,2.856,-1.4470999,0.95339996,-9.720699,-0.877,wlk
-1.0834131,-1.1853578,-0.089448124,0.8911,0.1813,-1.1937,0.7858,-9.6938,-1.2578,wlk
-1.2106302,-1.4047631,-0.22837633,2.0772,-3.2484999,-0.3683,0.7274,-9.656899,-1.5439,wlk
-1.3866816,-1.5752294,-0.41090286,2.3634,-3.4513,0.8003,0.7452,-9.611,-1.8005999,wlk
-1.2522912,-1.611288,-0.56328756,2.4565,-2.5268,0.9015,0.77959996,-9.5647,-2.0195,wlk
-0.9189682,-1.6174839,-0.60693824,-0.80939996,-16.0669,-4.0232997,0.8585,-9.528299,-2.1548,wlk
-0.6895796,-1.3462771,-0.42017058,3.5033998,0.46559998,2.6243,0.8506,-9.4876995,-2.3301,wlk
-0.6380051,-1.3117023,-0.21266837,0.0014,-0.51669997,0.8164,0.7143,-9.417399,-2.6404,wlk
-0.3284884,-1.094112,-0.05656612,-0.2672,-1.4314,0.4493,0.66929996,-9.3558,-2.8616998,wlk
-0.09869837,-1.0429215,-0.015341444,0.4527,-1.6366999,1.2878,0.6357,-9.2878,-3.0823998,wlk
-0.062273346,-1.0015397,0.07419395,0.3015,-1.0254999,1.7585,0.61039996,-9.1831,-3.3864,wlk
0.35313246,-0.82194537,0.22617722,-0.71239996,0.45819998,2.8646998,0.6045,-9.097899,-3.61,wlk
0.6177418,-0.7636514,0.17140879,-1.4111999,3.3443,1.6876,0.5972,-9.0223,-3.796,wlk
0.734452,-0.7521671,0.017313667,-1.6659,3.4566,2.7923,0.5676,-8.9581995,-3.9494,wlk
0.65737826,-0.7621155,-0.10560987,-1.5482,3.1439,2.9266999,0.5087,-8.9102,-4.0642,wlk
0.4559498,-0.7015002,-0.19477874,-1.6364,3.8423998,2.3279998,0.43019998,-8.882999,-4.1324,wlk
0.08035496,-0.5642824,-0.2896025,-1.6036999,3.5393,1.9828,0.33859998,-8.8741,-4.1598997,wlk
-0.45134214,-0.60945153,-0.41086796,-0.59529996,2.1427999,1.5855,0.2521,-8.8701,-4.1745,wlk
-0.6062052,-0.74490654,-0.5881585,0.8851,1.2808,0.0251,0.1445,-8.900499,-4.1145,wlk
-0.32721433,-1.044632,-0.70453703,1.3585,0.34579998,-0.98719996,0.0438,-8.9560995,-3.9945,wlk
0.05162684,-1.2437042,-0.6803992,1.2660999,-0.6318,-1.8607,-0.010799999,-9.007999,-3.8760998,wlk
0.5786988,-0.83301073,-0.5365317,1.2739999,-1.7586,-2.754,-0.0482,-9.058,-3.7575,wlk
0.9898111,-0.2351482,-0.23095942,1.3869,-3.0,-5.0424,-0.063,-9.091499,-3.6755998,wlk
0.4566305,-0.121300384,0.03986332,1.7656,-3.8969998,-6.2711997,-0.049399998,-9.0967,-3.6629,wlk
-0.62707937,0.3689277,-0.013526302,2.1255999,-2.0976,-4.1074,-0.017199999,-9.0622,-3.7475998,wlk
0.3052581,1.7933607,0.13864896,0.87189996,0.9781,-1.7962999,0.04,-9.0098,-3.8718998,wlk
1.3271483,0.99869484,0.4655142,-0.6716,2.7572,0.44829997,0.0832,-8.9844,-3.9297,wlk
1.3621945,0.49816933,0.52162653,-1.9629999,1.2778,3.2099,0.1096,-8.9858,-3.9257998,wlk
1.5194488,1.6797746,0.040212385,-3.6139,-3.8181999,1.9527999,0.1423,-9.028399,-3.8258998,wlk
1.5838339,1.7100562,-0.2451664,-3.8241,-7.1682997,-2.5779,0.1662,-9.1008,-3.6492,wlk
1.2821363,0.5166349,-0.31764993,-3.7282,-4.0857997,2.4396,0.1488,-9.1335,-3.5674,wlk
1.1564028,-0.04108505,-0.066235244,-6.1473,3.4496999,11.4362,0.175,-9.0886,-3.6792,wlk
1.3280734,0.37613592,0.27811822,-6.6503,5.0815997,2.8787,0.276,-9.1121,-3.6141999,wlk
1.3440257,0.57187456,0.4540823,2.1656,1.5589,3.7658,0.2566,-9.208099,-3.3637998,wlk
1.2798499,0.7430914,0.42167154,8.494599,-3.3516998,8.5912,0.18419999,-9.308599,-3.0799,wlk
1.1938401,1.0458362,0.3218736,5.2841,-4.4460998,5.2931,0.26639998,-9.391,-2.812,wlk
1.1791444,1.2481374,0.2717303,0.093499996,-1.4322,-0.5944,0.4163,-9.4825,-2.4652,wlk
1.1805233,1.4329153,0.3018896,-3.2275,0.39569998,0.77529997,0.49139997,-9.5355,-2.2365,wlk
1.1504338,1.3424549,0.3594331,-3.0993,1.1221,2.8437998,0.50049996,-9.5852995,-2.0103,wlk
1.1127172,1.1285473,0.40163517,-2.175,0.3718,2.128,0.4588,-9.6391,-1.7456,wlk
1.0751926,0.9805085,0.4051433,-0.7988,-0.1584,1.9160999,0.38689998,-9.6873,-1.4748,wlk
1.0313151,0.83308053,0.39166933,-0.36159998,0.125,1.5482,0.3224,-9.725699,-1.2148,wlk
0.9845053,0.70415306,0.37473965,-0.0991,0.3426,0.9752,0.2756,-9.757,-0.94579995,wlk
0.9090198,0.5381199,0.43146285,0.2007,0.266,0.2911,0.24049999,-9.778399,-0.7029,wlk
0.8455073,0.43388885,0.49591786,0.93729997,0.035,-0.1537,0.20009999,-9.7926,-0.4836,wlk
0.8429068,0.40111157,0.48036698,1.559,-0.0139,-0.32029998,0.1374,-9.8025,-0.24839999,wlk
0.83967793,0.49747118,0.49268898,2.1071,0.3822,-0.7515,0.060099997,-9.806399,-0.0231,wlk
0.8107578,0.66607,0.51075315,2.0421999,0.6453,-0.82979995,-0.0221,-9.8047,0.1924,wlk
0.7259697,0.6889862,0.52965504,1.4089,0.42279997,-1.0152999,-0.1046,-9.797999,0.3974,wlk
0.5533392,0.5268451,0.5813168,0.529,0.088199995,-1.3270999,-0.1857,-9.787,0.5916,wlk
0.42428955,0.47698104,0.57070524,0.27809998,0.19129999,-1.4758999,-0.27809998,-9.7724,0.76989996,wlk
0.4360356,0.6150017,0.42299798,0.65749997,0.20279999,-0.97389996,-0.3829,-9.754399,0.93469995,wlk
0.35424948,0.77389646,0.2523397,1.2694,-0.073699996,-0.2839,-0.4849,-9.7329,1.0978,wlk
0.11196287,1.0074041,0.18849556,1.416,-0.2559,-0.189,-0.5923,-9.7074995,1.2579,wlk
-0.3141418,1.096381,0.27138126,0.9833,-0.412,-0.025799999,-0.70879996,-9.679,1.4086,wlk
-0.92923075,0.7406654,0.28804913,0.5955,-1.55,-0.40309998,-0.83089995,-9.649099,1.5407,wlk
-1.6437336,0.17641789,0.0686438,1.6157,-2.4608,0.0859,-0.9586,-9.6208,1.64,wlk
-2.458942,-0.53358203,-0.16517796,2.6641,-2.2738,-0.95559996,-1.0950999,-9.592199,1.7205,wlk
-2.8048663,-1.2031078,-0.41968188,2.4795,-2.6589,-2.5976999,-1.185,-9.5699,1.7838,wlk
-3.1357808,-1.4271731,-0.654673,1.8370999,-3.0402,-4.0875,-1.2585,-9.5514,1.8319999,wlk
-2.979434,-1.4925882,-0.7395658,2.4264,-3.1366,-5.3459,-1.328,-9.5433,1.8253,wlk
-2.7430816,-0.8025722,-0.89399254,5.0526,-3.9554,-5.6349998,-1.4144,-9.5483,1.7319,wlk
-2.416321,-0.32375857,-1.1332073,6.2145,-4.3926997,-6.4312,-1.4877,-9.571899,1.5279,wlk
-2.2591367,-0.5189387,-1.2197583,5.5502996,-3.4125998,-3.9543998,-1.5001999,-9.620399,1.1694,wlk
-2.2276335,-0.872333,-1.2095655,3.2979999,-1.0201,-0.96639997,-1.4544,-9.669,0.7507,wlk
-2.1735806,-0.7767413,-1.0665009,0.88259995,0.29549998,0.89269996,-1.3533,-9.7099,0.235,wlk
-2.0953376,-1.0897486,-0.92917836,-0.7607,-0.7883,2.2652,-1.2202,-9.724299,-0.34309998,wlk
-2.0376894,-1.4525503,-0.8784591,-0.3044,-4.132,2.628,-1.0879999,-9.7051,-0.8922,wlk
-1.8657395,-1.5600451,-0.8481078,-0.88689995,-5.6577,1.5188999,-0.9273,-9.6601,-1.411,wlk
-1.6707863,-1.6173617,-0.8071101,-1.7674999,-4.4023,1.2629,-0.6938,-9.5917,-1.92,wlk
-1.3651791,-1.5603768,-0.82177085,-1.5404999,-2.5139,2.6286,-0.4992,-9.5188,-2.3049998,wlk
-0.9641897,-1.5484211,-0.87706286,-1.7197,-1.5473,3.1034,-0.3101,-9.4164,-2.721,wlk
-0.5157448,-1.5108093,-0.85678214,-0.6123,-0.96349996,2.095,-0.1525,-9.2942,-3.1246998,wlk
-0.0017453292,-1.3143725,-0.77887064,-0.0088,0.1742,2.8913,-0.0499,-9.1571,-3.5091999,wlk
0.4863011,-1.076397,-0.6377957,-0.61329997,0.49499997,3.4759998,0.0053,-9.0072,-3.8781,wlk
0.87261224,-0.8470083,-0.40667915,-1.1216999,0.68759996,4.3872,0.0332,-8.8565,-4.2107,wlk
1.1705749,-0.5772851,-0.16545722,-1.1051999,0.9544,5.2778997,0.0363,-8.7114,-4.5032,wlk
1.3793687,-0.43437755,0.021868976,-1.2815,1.6430999,5.5614,0.0361,-8.5862,-4.7376,wlk
1.361636,-0.4485147,0.2470339,-1.8519,2.5714998,5.7599998,0.037699997,-8.4848995,-4.9165998,wlk
0.9173625,-0.51007247,0.44282493,-1.7603999,3.2138,5.8845997,0.034399997,-8.4407,-4.9922,wlk
0.32798228,-0.43896776,0.38250637,-2.1241,3.7157,5.1166997,0.035299998,-8.4425,-4.9891996,wlk
-0.3134786,-0.3404439,0.17034413,-2.5867999,3.8097,4.1108,0.0371,-8.4973,-4.8953,wlk
-0.9185319,-0.22799236,-0.10183996,-2.4280999,3.2893999,2.4726,0.0255,-8.5752,-4.7576,wlk
-0.9033475,-0.77489126,-0.42088616,-2.5098999,2.2236,0.39389998,-0.00049999997,-8.6862,-4.5519,wlk
-0.48546332,-1.0426596,-0.70303607,-2.3581998,0.1311,-2.9792,-0.0444,-8.809999,-4.3071,wlk
0.04330162,-1.0105805,-0.83098614,-1.0788,-1.9606999,-5.3419,-0.1274,-8.9246,-4.0625997,wlk
0.5878967,-0.8261167,-0.79964006,1.0919,-3.2617998,-5.4603996,-0.24849999,-8.9965,-3.895,wlk
1.0971489,-0.4224046,-0.57405627,1.8033999,-4.1015997,-6.6796,-0.352,-9.0196,-3.833,wlk
1.2268268,0.30243066,0.04225442,1.9095,-4.2743998,-5.7819,-0.40899998,-8.993899,-3.8874,wlk
0.2918714,0.4857775,0.23883085,2.8307,-2.1697,-2.8529,-0.4084,-8.9215,-4.0509,wlk
-0.46628216,0.6363994,-0.039828412,3.2796,1.2105,-0.4324,-0.3965,-8.8499,-4.2061,wlk
0.56927407,1.5837816,0.31208232,2.0462,3.4297,0.88199997,-0.3594,-8.8136,-4.2848997,wlk
1.0411936,0.96502745,0.8354542,-0.52169997,3.3019998,1.7205,-0.29209998,-8.8232,-4.2702,wlk
1.1130837,1.0472673,0.72057664,-3.5679,0.5945,2.5944998,-0.2271,-8.8713,-4.1733,wlk
1.6653234,2.0804324,-0.2936342,-6.9104,-5.5018,0.6124,-0.1601,-8.9629,-3.9761,wlk
1.6958317,1.2869011,-0.75614643,-4.218,-7.5941,-4.8441997,-0.1459,-9.0575,-3.7561998,wlk
1.1244807,-0.23446754,-0.54927254,-3.0321,-3.1402,4.8318,-0.1549,-9.0788,-3.7041,wlk
1.0558718,-0.23874359,-0.10826277,-5.9476,3.4940999,9.6135,-0.103,-9.0447,-3.7884,wlk
1.0914067,0.1338493,0.18036233,-5.021,4.4727,1.9986,-0.0391,-9.091599,-3.6755,wlk
0.9947853,0.49155453,0.26871088,7.2360997,0.2347,6.3767,-0.116399996,-9.1587,-3.5033,wlk
1.0641797,0.85371035,0.20156808,12.6421995,-3.652,10.9762,-0.1779,-9.2338,-3.2976,wlk
1.1457388,1.004437,0.13285446,5.3757997,-3.5551,3.3892,0.0079,-9.3406,-2.9871,wlk
1.2419763,0.88240355,0.123935826,-1.5566,-0.77269995,-1.8299999,0.2228,-9.4359,-2.6613998,wlk
1.2829392,0.66582566,0.14844026,-4.1389,0.852,1.8079,0.3143,-9.4916,-2.4452999,wlk
1.2430409,0.5098107,0.2338043,-3.6176999,0.3037,1.1333,0.3227,-9.5415,-2.2414,wlk
1.1692833,0.24396212,0.35810664,-1.7536999,-0.12799999,1.8311,0.2925,-9.5903,-2.0272,wlk
1.078823,0.03398156,0.5031261,0.114,0.0991,1.652,0.25849998,-9.6311,-1.8284999,wlk
0.98827523,-0.06813765,0.55054665,0.979,0.4157,1.1714,0.24669999,-9.6732,-1.5931,wlk
0.93652624,-0.177116,0.58088046,1.4861,0.4772,0.5114,0.24949999,-9.7052,-1.3841,wlk
0.930435,-0.24710372,0.61699134,1.5672,0.34289998,-0.1017,0.24689999,-9.7376995,-1.1338,wlk
0.982568,-0.2867227,0.6384764,1.4264,0.1443,-0.4574,0.23089999,-9.7646,-0.8763,wlk
1.0943738,-0.2957635,0.6436251,1.0332999,0.0466,-1.1869,0.1924,-9.784599,-0.6272,wlk
1.1285124,-0.22921409,0.6606071,0.9443,0.4227,-1.1457,0.1245,-9.7979,-0.39389998,wlk
0.9831963,-0.08412487,0.6693163,1.1409,0.8028,-1.1659,0.0162,-9.8053,-0.15789999,wlk
0.74082243,0.070581116,0.63973296,1.4634999,0.7547,-0.45099998,-0.0808,-9.8062,0.0195,wlk
0.6667158,0.2428102,0.5503023,1.5373,0.60389996,-0.17719999,-0.1938,-9.8025,0.2066,wlk
0.5574407,0.60369194,0.3858923,1.3031,0.7716,0.9209,-0.3126,-9.7937,0.3931,wlk
0.3439346,1.1443251,0.22026055,0.4438,0.49229997,1.4685999,-0.434,-9.7792,0.5907,wlk
0.06195919,1.4479775,0.12224286,-0.1707,-0.3435,1.1114,-0.5549,-9.757299,0.8106,wlk
-0.26204374,1.2283453,0.15032521,-0.28219998,-0.88269997,0.7089,-0.6787,-9.728,1.0365,wlk
-0.7616966,0.81201446,0.1545489,-0.1646,-1.8175,0.6509,-0.80619997,-9.695399,1.2319,wlk
-1.4005569,0.25298548,0.08684758,0.019199999,-2.3974,-0.1806,-0.93119997,-9.6647,1.377,wlk
-2.159269,-0.38475785,0.09138544,0.7298,-2.7219,-1.9836999,-1.0436,-9.6343,1.5031999,wlk
-2.6674914,-0.9445198,-0.1010022,1.8513999,-2.836,-2.9326,-1.1355,-9.6085,1.5989,wlk
-2.8532991,-0.95919806,-0.46642178,2.6059,-2.7542999,-3.7082,-1.2134,-9.592199,1.6389999,wlk
-2.7892106,-0.6587571,-0.6750584,3.3218,-2.4355,-4.5471,-1.282,-9.5873995,1.6149,wlk
-2.516538,0.12868312,-0.95380497,4.6124997,-3.0093,-5.5327,-1.3469,-9.592199,1.5316,wlk
-2.1188297,0.88140875,-1.203387,4.5838,-3.8636,-5.2546,-1.3966999,-9.6107,1.3614,wlk
-1.8933681,0.7727271,-1.3729807,3.6832,-3.0142,-3.6632,-1.4179,-9.6461,1.0546,wlk
-1.835877,-0.07220427,-1.4913315,3.1885998,-0.9421,-0.85319996,-1.4233999,-9.6784,0.68649995,wlk
-1.9777198,-0.32857567,-1.3248794,1.0379,0.095,1.434,-1.3909999,-9.7055,0.1938,wlk
-1.9621166,-0.26644197,-1.0412635,-1.8585,-0.25959998,2.1938999,-1.2893,-9.713699,-0.38939998,wlk
-1.8931062,-0.37440804,-0.8666083,-2.3844,-3.1980999,2.3739,-1.1753,-9.6975,-0.86359996,wlk
-1.7187304,-0.638773,-0.7902327,-2.8583999,-5.023,1.1487,-0.96599996,-9.6574,-1.4036,wlk
-1.5494161,-0.8516683,-0.6969274,-2.33,-4.1828,0.29479998,-0.72959995,-9.615,-1.7853999,wlk
-1.2969542,-0.995658,-0.66814697,-1.7627,-2.3095999,1.2753,-0.4339,-9.556399,-2.1578999,wlk
-0.9387428,-1.0434102,-0.6294879,-2.2591,-1.2380999,2.5121999,-0.1239,-9.470699,-2.5417,wlk
-0.5747369,-1.0009463,-0.5400398,-1.6746,-0.6671,1.6409999,0.085999995,-9.3748,-2.8766,wlk
-0.11543608,-0.8628908,-0.4240801,-0.73539996,-0.045399997,1.7518,0.2647,-9.2513,-3.2424,wlk
0.39421752,-0.7304203,-0.30250046,-0.85349995,0.3839,2.3123999,0.4122,-9.102099,-3.6265,wlk
0.80815727,-0.55758035,-0.25179866,-1.3905,0.8497,2.4981,0.49809998,-8.9795,-3.9103,wlk
1.09207,-0.3754727,-0.14899875,-1.7989999,1.4432,3.5858998,0.5536,-8.847199,-4.1939,wlk
1.3200275,-0.16032594,-0.009651671,-2.2816,2.0504,4.1568,0.585,-8.7287,-4.4312997,wlk
1.5155915,-0.11648327,0.093218036,-2.659,2.7143,4.6731997,0.59959996,-8.6376,-4.6046,wlk
1.5631866,-0.23303635,0.22614232,-2.501,3.3421998,5.0365996,0.5986,-8.578899,-4.713,wlk
1.259831,-0.1977109,0.32272884,-1.8536999,3.7691998,4.6910996,0.5887,-8.5647,-4.7402,wlk
0.65174085,-0.31204742,0.28480282,-1.1395999,3.7849,3.717,0.5708,-8.5999,-4.6781,wlk
-0.28890434,-0.18245672,0.13589133,-0.8659,3.4854,2.3355,0.56189996,-8.6730995,-4.542,wlk
-0.85665995,-0.1873262,-0.08873254,-0.7489,3.0424,1.1472,0.5528,-8.7793,-4.3343997,wlk
-0.6723532,-0.52241194,-0.3053279,-1.0411,1.5946,-0.701,0.541,-8.880899,-4.1238,wlk
-0.14819591,-0.43662903,-0.39556143,-0.8373,-0.4693,-2.5616,0.5137,-9.003799,-3.8518,wlk
0.3107733,-0.35761797,-0.28084093,-0.4245,-2.1843,-3.9524,0.454,-9.1227,-3.5691998,wlk
0.78817326,-0.11679743,-0.096603975,0.0613,-3.6339,-6.5162997,0.37989998,-9.2127,-3.3393,wlk
1.2587315,0.13210396,0.22830652,0.47869998,-5.6486998,-7.7030997,0.3057,-9.257299,-3.2214,wlk
0.9886592,0.47190213,0.24694663,0.72249997,-5.2551,-6.3434997,0.2679,-9.2390995,-3.2768,wlk
-0.028658306,1.0072644,-0.26412067,1.4646,-1.2142999,-2.2315,0.27109998,-9.180699,-3.4366999,wlk
0.45333183,2.4120624,-0.46453685,0.5828,2.6787,-0.21159999,0.2899,-9.1315,-3.5639,wlk
1.0801668,2.0003743,0.06181956,-1.4284999,3.4301,1.3294,0.3302,-9.118,-3.5948,wlk
1.1239396,0.81002474,0.6467841,-3.4536998,1.2731,3.0607,0.3547,-9.138,-3.5412,wlk
1.36483,1.0116452,0.6473077,-4.3539,-3.3801,2.2897,0.3626,-9.191999,-3.3978999,wlk
1.5247371,1.5244229,0.15702727,-1.8535999,-5.5041,-1.0167999,0.3238,-9.2843,-3.1411998,wlk
1.4123553,1.3243035,-0.061784655,1.1935999,-4.0066,-0.30249998,0.3067,-9.340099,-2.9728,wlk
1.1302927,0.6913075,-0.10273008,-2.3459,2.1683,9.6775,0.41399997,-9.3369,-2.9698,wlk
1.1304322,0.47273988,0.07510152,-7.9962997,4.4577,3.2684,0.66099995,-9.361,-2.8467,wlk
1.2430584,0.6795614,0.2414663,-4.9136,2.6884,2.0296,0.7457,-9.4157,-2.6376,wlk
1.2145048,0.9450958,0.34491196,3.0748,-1.2559,5.3931,0.66139996,-9.4823,-2.4119,wlk
1.1489677,1.0794338,0.34798375,5.9196,-3.6955,5.9124,0.5821,-9.5532,-2.1369,wlk
1.1240968,1.2300731,0.31180307,2.7233999,-2.3281999,2.7942998,0.6107,-9.6161995,-1.8233999,wlk
1.1039906,1.5262206,0.3189589,-0.87119997,0.092099994,0.1094,0.6653,-9.6634,-1.5314,wlk
0.95863956,1.3462248,0.3260624,-2.8601,0.80979997,1.8003999,0.7026,-9.6946,-1.3003,wlk
0.8481253,1.2208054,0.3134786,-2.7365,0.593,1.6301,0.6967,-9.723,-1.0712,wlk
0.7757639,1.0886666,0.29838148,-2.0033998,0.2574,1.1895,0.6599,-9.750199,-0.81689996,wlk
0.74262017,0.75117224,0.33183944,-0.9166,0.2103,0.94729996,0.6028,-9.7717,-0.56479996,wlk
0.76698494,0.499967,0.40037853,-0.2082,0.3522,1.4916999,0.5416,-9.7862,-0.3247,wlk
0.8469385,0.47511354,0.3917217,0.2622,0.174,-0.1461,0.48299998,-9.7943,-0.0892,wlk
0.9306095,0.5330934,0.37857938,1.2271,0.029199999,-0.98999995,0.4105,-9.796599,0.1662,wlk
0.9793391,0.51897365,0.43127087,1.9697,0.2329,-1.1899999,0.3446,-9.7944,0.3466,wlk
0.96782,0.5624847,0.52057934,1.6709,0.36479998,-1.5124999,0.2707,-9.788899,0.5221,wlk
0.82531387,0.6058736,0.60133576,0.793,0.36659998,-1.2003,0.19739999,-9.781,0.6806,wlk
0.64996064,0.631879,0.51565754,1.1747999,0.1602,-0.8393,0.1196,-9.7706995,0.82949996,wlk
0.43319073,0.74743724,0.39673078,1.4104999,0.1762,-0.1968,0.031,-9.757299,0.9813,wlk
0.4076042,0.9307317,0.16126843,0.8411,0.44239998,-0.3531,-0.056599997,-9.7390995,1.1474999,wlk
0.43957862,1.2087277,-0.0758171,0.1445,0.30069998,-0.30859998,-0.1445,-9.715099,1.3284999,wlk
0.2311165,1.6314988,-0.048048913,0.0187,-0.20279999,-0.281,-0.254,-9.6821995,1.5361999,wlk
-0.13910274,1.6637176,0.14994124,0.1365,-1.0088,-0.85889995,-0.3621,-9.6509,1.7023,wlk
-0.6263114,1.3078625,0.22354177,1.1769999,-0.9945,-0.6897,-0.5003,-9.6161995,1.8567,wlk
-1.2121137,0.77325064,0.08283333,2.0068,-1.8098999,-0.1215,-0.62409997,-9.5854,1.9749,wlk
-1.988855,0.1919164,-0.122958444,2.2405,-1.7641,-0.20449999,-0.7303,-9.5625,2.0481,wlk
-2.4882636,-0.36458182,-0.19259708,0.839,-2.1954,-2.4354,-0.7998,-9.543099,2.1118,wlk
-2.957914,-0.48076838,-0.19511035,-0.0747,-2.7326,-3.7247,-0.8372,-9.5255995,2.1752,wlk
-3.0910654,-0.35498253,-0.23314108,1.0461999,-3.2417,-4.6217,-0.8991,-9.5166,2.1896,wlk
-2.8656037,-0.120462626,-0.38748056,3.5583,-4.1305,-4.7186,-0.9988,-9.5203,2.1297,wlk
-2.520744,0.4574508,-0.6744999,5.016,-4.7539,-5.2311,-1.1032,-9.5441,1.9655,wlk
-2.2758918,0.4302411,-0.90306824,4.0832,-4.2731,-4.5624,-1.1412,-9.5836,1.7379999,wlk
-2.2346847,-0.0014486233,-1.0574601,0.9644,-2.4036999,-2.4264,-1.1214,-9.6486,1.3477,wlk
-2.15796,-0.16084954,-1.0022902,-1.4068999,-0.3136,-1.6841999,-1.074,-9.7087,0.8703,wlk
-2.0813923,-0.41016984,-0.86217517,-2.7465,0.48049998,0.76769996,-1.0289999,-9.7478,0.3011,wlk
-2.0461018,-0.71150094,-0.7898313,-1.587,-1.2207999,1.8474,-0.9823,-9.7527,-0.2979,wlk
-1.9169649,-0.89863515,-0.7901978,-0.6889,-3.9773,1.9420999,-0.8997,-9.7225,-0.91239995,wlk
-1.7413847,-1.0524161,-0.6994058,-0.366,-4.2739,0.7442,-0.7715,-9.6809,-1.362,wlk
-1.4426019,-0.99433154,-0.5968677,-0.6235,-3.0298,1.7895,-0.5826,-9.6206,-1.8090999,wlk
-1.0542661,-1.1531914,-0.5824862,-1.1995,-1.7277,2.5623999,-0.3793,-9.5401,-2.2388,wlk
-0.64922756,-1.2019559,-0.54923767,-0.81369996,-0.9647,1.7268,-0.1963,-9.4401,-2.6487,wlk
-0.15687019,-1.0807253,-0.4545361,0.067099996,0.0661,1.6367999,-0.057299998,-9.3236,-3.0391,wlk
0.33166492,-0.8459087,-0.37231365,-0.0729,0.57129997,2.2809,0.0435,-9.1914,-3.4185,wlk
0.79335684,-0.5947558,-0.28523916,-0.92749995,0.893,2.9559999,0.123399995,-9.052199,-3.7698998,wlk
1.1941369,-0.46273914,-0.17540559,-1.0589,1.6565,3.6443,0.1665,-8.9134,-4.0856,wlk
1.5031997,-0.33222342,-0.030927233,-1.0806999,2.0822,4.0692997,0.1883,-8.79,-4.3438997,wlk
1.6276243,-0.31388003,0.07346091,-1.4821,2.7812998,4.4825997,0.1876,-8.6947,-4.5316997,wlk
1.4247297,-0.47696358,0.15304792,-1.6136,3.4461,5.2847,0.17199999,-8.6338,-4.6472,wlk
0.9349031,-0.45019022,0.20608848,-1.571,4.1762,5.4705,0.14899999,-8.6186,-4.6762,wlk
0.24623105,-0.45256388,0.1280199,-1.8697,4.2363,4.7275,0.1339,-8.6493,-4.6196,wlk
-0.6156649,-0.27927014,-0.010838495,-1.6975,3.9752998,2.9517999,0.1284,-8.7217,-4.4816,wlk
-1.080289,-0.3095516,-0.13880603,-1.4121,3.1878,1.4669,0.117599994,-8.8266,-4.2716,wlk
-0.73902476,-0.7455174,-0.37852702,-0.8889,1.3416,-1.5762,0.0945,-8.9516,-4.0037,wlk
-0.1007055,-0.9454449,-0.5217138,-0.3698,-1.2682999,-4.1942,0.055999998,-9.0776,-3.7098,wlk
0.48982665,-0.66792005,-0.40716785,0.1639,-3.5196998,-5.5332,-0.0069999998,-9.1798,-3.4496,wlk
1.0084862,-0.25504497,-0.1388235,0.5664,-4.5848,-6.9901,-0.0761,-9.2424,-3.2773,wlk
1.1682535,-0.19767599,0.39084902,-0.0019999999,-4.6463,-7.8543,-0.1352,-9.259399,-3.2271,wlk
0.22900465,0.09878564,0.3235666,0.8075,-3.4278,-5.5449,-0.1504,-9.2226,-3.3300998,wlk
0.18524924,1.5259064,-0.08227482,2.2647,0.12629999,-2.4626,-0.14649999,-9.148399,-3.5291,wlk
1.1550764,2.00294,-0.103445664,1.8472999,3.4273999,-0.4258,-0.1311,-9.0956,-3.6634998,wlk
1.2723625,1.2006295,0.3698702,0.0175,3.9796,2.1904,-0.105799995,-9.0889,-3.681,wlk
1.2618033,1.0129193,0.58163095,-4.1458,-0.92679995,3.9150999,-0.0808,-9.1249,-3.5914998,wlk
1.380538,1.4497054,0.2290221,-6.2605,-6.8187,0.85719997,-0.074499995,-9.1954,-3.4069,wlk
1.429861,1.3398893,-0.0935322,-1.7708,-6.6741,-3.3495998,-0.161,-9.2713995,-3.1913998,wlk
1.3189104,0.83906704,-0.16060519,-0.64669997,0.34109998,9.1409,-0.2162,-9.284699,-3.149,wlk
1.1381466,0.38927823,0.032620203,-4.8942,4.1973,5.7667,-0.107099995,-9.2968,-3.1188998,wlk
1.1483394,0.38177332,0.30085987,-5.0906997,3.9239,1.8941,0.030499998,-9.3666,-2.9041998,wlk
1.1839964,0.47678906,0.3854385,1.6315999,0.5336,5.0757,0.0256,-9.438,-2.6632,wlk
1.1818322,0.78787655,0.30579913,5.9084997,-2.8144999,5.7374,-0.0343,-9.5025,-2.4227,wlk
1.1581482,1.0938327,0.20015436,4.0234,-3.251,4.698,-0.012499999,-9.566199,-2.1581,wlk
1.1575024,1.2551186,0.1770462,0.618,-0.8491,0.9298,0.0585,-9.6243,-1.8809999,wlk
1.1650945,1.4068401,0.2787989,-2.1634,0.4174,0.53819996,0.1236,-9.6748,-1.5972999,wlk
1.0996273,1.2283627,0.36264452,-2.8042,0.6446,1.7487999,0.127,-9.7059,-1.3958,wlk
1.053219,1.1592128,0.43135813,-1.5967,0.25329998,1.6990999,0.076699995,-9.7362995,-1.1695,wlk
0.93223274,0.99899155,0.48315948,-0.4513,0.22,1.9067999,0.01,-9.7618,-0.9359,wlk
0.8144928,0.67640233,0.52215016,0.1069,0.20019999,1.6344,-0.0383,-9.7813,-0.7028,wlk
0.7779107,0.39477602,0.48727846,-0.1691,0.0765,1.2397,-0.0661,-9.7949,-0.4748,wlk
0.8258549,0.31237903,0.42118284,-0.0047,0.1043,0.0221,-0.0933,-9.8029995,-0.24759999,wlk
0.891008,0.3607072,0.37775907,0.86149997,0.1361,-0.3032,-0.14559999,-9.8055,-0.020399999,wlk
0.8815309,0.4095066,0.36939892,1.6127,0.2113,-0.4574,-0.22019999,-9.802199,0.1927,wlk
0.767334,0.42212534,0.39002872,1.4305999,0.34989998,-1.3655,-0.3127,-9.7937,0.3947,wlk
0.6225938,0.38590974,0.39191368,1.3398,0.1901,-1.2873,-0.4179,-9.781,0.5714,wlk
0.46022588,0.3373198,0.40591124,1.9907999,-0.2962,-1.4316,-0.52959996,-9.7654,0.7255,wlk
0.31714377,0.40488148,0.42219514,2.348,-0.1889,-1.3004,-0.64169997,-9.7452,0.8885,wlk
0.32414255,0.45125487,0.3233397,2.398,0.1739,-0.9323,-0.7211,-9.725599,1.0303999,wlk
0.33374184,0.46155232,0.17997836,1.8714999,-0.0674,-0.5908,-0.80259997,-9.6999,1.1988,wlk
0.23015657,0.53325045,0.17290977,0.963,-0.4003,-0.8828,-0.88449997,-9.671,1.3634,wlk
-0.035063665,0.61467004,0.29866076,0.4619,-0.4199,-1.2787,-0.97179997,-9.6417,1.5043,wlk
-0.4532969,0.4684638,0.43271947,0.8728,-0.5748,-0.81259996,-1.0591,-9.6142,1.6168,wlk
-1.033008,0.14892894,0.44537312,1.7754999,-1.0109,0.0866,-1.1479,-9.59,1.6981,wlk
-1.8191742,-0.16249016,0.30642745,2.3894,-1.6496999,-0.092199996,-1.242,-9.568999,1.7495999,wlk
-2.4201434,-0.7559719,0.06049311,1.8759999,-2.1912,-1.2952,-1.3268,-9.547299,1.8051,wlk
-2.8312032,-1.1059803,-0.19223057,0.96989995,-2.5593998,-2.9101999,-1.3719,-9.5321,1.851,wlk
-3.1550665,-1.0914592,-0.50726247,1.2667999,-2.9157999,-4.0956,-1.4237,-9.5189,1.8793,wlk
-2.9873753,-1.1245506,-0.65861744,2.8553998,-3.5895998,-5.0797997,-1.5021,-9.512,1.8535,wlk
-2.6860094,-0.76654863,-0.86505497,4.816,-3.8606,-5.5755,-1.5993999,-9.5155,1.7508999,wlk
-2.4370208,-0.70685834,-1.0736219,5.6584,-4.1052,-5.1949,-1.6867,-9.5358,1.5468999,wlk
-2.3707855,-0.9545206,-1.2447863,4.3563,-3.241,-3.3497,-1.7378999,-9.5762,1.202,wlk
-2.2247188,-1.0427469,-1.296797,2.0061998,-0.96519995,-1.3541,-1.7315999,-9.6258,0.71669996,wlk
-2.0870123,-0.8948303,-1.2642293,0.3812,0.29189998,0.8908,-1.6854999,-9.6572,0.2564,wlk
-1.9508767,-1.2242612,-1.1971911,0.1828,-0.6246,2.7034,-1.5850999,-9.672299,-0.3204,wlk
-1.9230387,-1.3170953,-1.2274377,1.1436,-3.6144,2.6462998,-1.4574,-9.6539,-0.92029995,wlk
-1.7780716,-1.5254526,-1.1945732,1.0160999,-5.2464,1.2121999,-1.3201,-9.620399,-1.3691,wlk
-1.5784409,-1.889092,-1.0863802,0.8983,-4.2778,1.7034,-1.1337,-9.569099,-1.8211,wlk
-1.3306913,-2.0534322,-1.0678447,0.47129998,-2.76,3.3137999,-0.9323,-9.498199,-2.2547,wlk
-0.96595246,-2.1568255,-1.0511769,-0.3922,-1.9454,3.3648,-0.73539996,-9.4106,-2.6587,wlk
-0.48539352,-2.1324432,-1.0127448,0.5272,-1.4106,1.6264,-0.5469,-9.307899,-3.0384998,wlk
0.012950343,-1.9211712,-0.93087137,0.8915,-0.2007,2.6232998,-0.40109998,-9.1939,-3.3881998,wlk
0.42308527,-1.5315614,-0.8471828,-0.0849,0.4845,3.4069,-0.2681,-9.0653,-3.7305,wlk
0.72235686,-1.3084733,-0.6750061,0.1495,1.0577999,4.0044,-0.1691,-8.9325,-4.0436,wlk
1.0604272,-1.1558443,-0.4723559,0.0633,1.5178,4.9448,-0.1319,-8.8042,-4.3171997,wlk
1.3389119,-1.1606789,-0.20472711,-0.4536,2.1289,5.4754,-0.1248,-8.6895,-4.5438,wlk
1.3619328,-1.4456562,0.06452482,-0.9284,2.602,5.8315997,-0.14039999,-8.6037,-4.7037997,wlk
1.0802017,-1.7568135,0.26300368,-1.4511,2.7954,5.9066997,-0.1669,-8.5617,-4.7788997,wlk
0.58559287,-1.7037381,0.23609069,-1.7423999,3.3894,5.3269997,-0.1894,-8.5673,-4.7679996,wlk
0.04803146,-1.4398966,0.012147492,-2.333,3.6536999,4.2092,-0.1872,-8.6158,-4.6798997,wlk
-0.21985912,-1.1986048,-0.2149373,-2.1634,3.3639,2.5802999,-0.1901,-8.6792,-4.5613,wlk
-0.29958576,-1.1953585,-0.55918604,-2.2608,1.9511,-0.1214,-0.2103,-8.7766,-4.37,wlk
-0.10749483,-1.3864372,-0.8334471,-1.6985999,-0.4439,-3.1596,-0.2724,-8.8919,-4.1266,wlk
0.2380629,-1.2586267,-0.9231396,0.2251,-2.7761998,-4.3220997,-0.41149998,-9.0112,-3.8467,wlk
0.47773153,-0.51646036,-0.59829885,2.2883,-3.49,-4.4354997,-0.5722,-9.0821,-3.6548,wlk
0.23787092,-0.27070057,0.020402899,1.678,-2.9213998,-4.5743,-0.7366,-9.121099,-3.5259,wlk
-0.9512568,-0.38486254,0.2197195,1.2213,-2.3004,-3.5658998,-0.83889997,-9.1242,-3.4947999,wlk
0.012147492,0.84775877,0.358159,2.0102,-1.459,-2.5161998,-0.8825,-9.1125,-3.5147,wlk
1.3526301,0.7823438,0.4744154,2.4131,0.1671,-1.3247,-0.86359996,-9.1009,-3.5491,wlk
1.2009785,-0.068032935,0.64873886,0.9657,0.5754,0.4276,-0.8088,-9.1071,-3.5461,wlk
1.3163971,0.6326295,0.2506118,-3.3597,-3.5584,3.3105998,-0.7197,-9.1411,-3.4773,wlk
1.4112209,0.8642347,-0.14596188,-6.5452,-7.3657,-0.197,-0.6527,-9.1779995,-3.3920999,wlk
1.0299362,-0.01420698,-0.3322583,-4.7381997,-3.1722999,-0.92109996,-0.6749,-9.1938,-3.3446999,wlk
0.8548623,-0.95497435,-0.225514,-4.6414,4.0655,10.848,-0.7423,-9.1258,-3.5126,wlk
0.9674011,-1.1879758,-0.055780724,-4.7521996,4.4927998,2.718,-0.7492,-9.1215,-3.5221,wlk
1.0009638,-1.0802191,-0.030770155,0.9693,0.8315,1.2365999,-0.7829,-9.2064,-3.2861998,wlk
0.941291,-0.79567814,-0.10369001,9.4095,-2.3982,8.3489,-0.90709996,-9.2717,-3.0630999,wlk
0.94518304,-0.20008455,-0.16852899,8.3216,-3.2106,5.7481,-0.9176,-9.3516,-2.8061,wlk
0.9763895,0.07883652,-0.078487456,3.4301999,-1.1883,2.1303,-0.85109997,-9.4223995,-2.5814,wlk
0.94259995,-0.038030725,0.085172065,-0.093499996,0.0548,0.0819,-0.789,-9.479,-2.3865,wlk
1.0144377,-0.22033036,0.23151793,-0.7594,0.2644,1.2087,-0.78999996,-9.5219,-2.2089,wlk
1.0888237,-0.29667106,0.3225194,-0.1806,-0.076299995,1.397,-0.8294,-9.563499,-2.0051,wlk
1.0853156,-0.45284313,0.36568138,-0.0179,-0.1849,2.197,-0.8646,-9.602099,-1.7949,wlk
1.0524161,-0.6531022,0.3891735,-0.6385,0.13319999,2.2963,-0.8716,-9.635799,-1.5999999,wlk
1.0188884,-0.8221897,0.37336084,-1.3024,0.29209998,1.2278,-0.8451,-9.6672,-1.4140999,wlk
1.0512468,-0.84055054,0.3707254,-0.6038,0.48589998,0.5595,-0.8278,-9.6943,-1.2264,wlk
1.0628357,-0.8109847,0.4236263,0.5118,0.2215,0.1994,-0.8452,-9.7143,-1.0428,wlk
0.95150113,-0.79344416,0.51295227,1.3847,0.1091,0.4886,-0.8944,-9.7294,-0.84169996,wlk
0.7522369,-0.7045894,0.55813885,1.5498999,-0.096599996,0.31039998,-0.9615,-9.7394,-0.6242,wlk
0.53597313,-0.5496042,0.5462357,1.6945,0.1621,0.3841,-1.0375,-9.743199,-0.4037,wlk
0.41144392,-0.44757223,0.47858673,1.5486,0.38549998,0.6062,-1.1171,-9.741,-0.1845,wlk
0.28776988,-0.286234,0.39704496,1.0342,0.2999,0.7222,-1.1911,-9.7339,0.0328,wlk
0.08093092,-0.37114426,0.3172136,0.35549998,0.0705,-0.2511,-1.2674999,-9.7203,0.2805,wlk
0.0075572757,-0.6054198,0.28900906,0.48279998,-0.22119999,-1.4268,-1.336,-9.703,0.48529997,wlk
0.06871361,-0.698952,0.27452284,1.3672,-0.4917,-1.8291999,-1.4261,-9.6777,0.6917,wlk
0.0834791,-0.48645815,0.27324873,1.6504999,-0.5591,-1.1912999,-1.523,-9.6495,0.8578,wlk
-0.039077923,-0.30646235,0.31258845,2.0888999,-0.87049997,-1.1646999,-1.6182,-9.622499,0.9784,wlk
-0.40856412,-0.5048365,0.39154717,2.5346,-0.6398,-0.6507,-1.701,-9.5982,1.0723,wlk
-0.8509702,-1.0251192,0.41207224,2.1729,-0.48349997,0.31379998,-1.7708,-9.5781,1.1374999,wlk
-1.5189775,-1.407224,0.35358626,1.3621,-0.77129996,0.6871,-1.823,-9.564799,1.1662999,wlk
-2.1732316,-1.8166783,0.23153538,1.4031,-1.5471,0.5456,-1.864,-9.554,1.1901,wlk
-2.6339114,-1.9226896,0.16044812,1.6640999,-2.7358,-0.56259996,-1.8994999,-9.542,1.2294999,wlk
-3.0626166,-1.6128937,-0.03375467,2.4984999,-3.2387998,-1.8721,-1.9395,-9.5294,1.2641,wlk
-3.119078,-1.2063541,-0.3838328,3.4426,-4.5838,-3.2791,-1.9913,-9.5181,1.2687,wlk
-2.870194,-1.1553032,-0.60517544,4.9916997,-4.5999,-4.2750998,-2.0595,-9.5118,1.2056999,wlk
-2.6489735,-1.432252,-0.8796285,5.9782,-4.0092,-4.4698,-2.1144,-9.5141,1.0864999,wlk
-2.4553118,-1.5064111,-1.1968247,4.4154,-3.0936,-2.8316998,-2.1501,-9.5274,0.88019997,wlk
-2.2425735,-1.6519542,-1.4297214,1.1019,-1.7768999,-1.9323,-2.1708999,-9.5497,0.5104,wlk
-2.0575686,-1.6660041,-1.4875441,0.68689996,0.615,-0.5446,-2.1873,-9.558599,0.1327,wlk
-1.9387118,-1.892635,-1.4926405,0.6949,0.6064,2.4733999,-2.1856,-9.550099,-0.43359998,wlk
-1.8633659,-1.9065453,-1.5849859,1.9872999,-1.2602999,3.4034998,-2.1344,-9.526999,-0.9224,wlk
-1.6392831,-1.9338771,-1.7908823,3.9292,-3.0674,4.1854,-2.0463,-9.485,-1.4199,wlk
-1.452079,-2.1930585,-1.9707735,3.9078999,-4.6885,3.5902998,-1.9268999,-9.432899,-1.8642999,wlk
-1.1869984,-2.3094895,-2.0115268,2.8722,-4.4027,3.1729,-1.7639999,-9.3756,-2.2707,wlk
-0.86786497,-2.7198339,-2.0756853,1.3424,-2.9645,4.0566998,-1.5777999,-9.3133,-2.6346998,wlk
-0.57782614,-3.0563858,-2.1130004,1.3852,-2.0059,3.428,-1.395,-9.2423,-2.9671,wlk
-0.28546605,-3.222192,-2.0289803,2.0818,-1.1559,3.6564999,-1.2384,-9.1606,-3.2740998,wlk
0.053284902,-3.0847995,-1.8626852,2.8745,-1.031,3.9520998,-1.0799,-9.0697,-3.5697,wlk
0.31342623,-2.8724453,-1.6879952,2.5667,-0.7834,4.3766,-0.89949995,-8.9839,-3.8274,wlk
0.49953067,-2.657735,-1.5058701,1.926,-0.5227,5.0618,-0.7198,-8.9014,-4.0517,wlk
0.65737826,-2.3639786,-1.2931668,2.3783998,-0.2228,5.184,-0.55439997,-8.8287,-4.2328,wlk
0.7855203,-2.083068,-1.0063219,1.8220999,-0.1555,5.1565,-0.41,-8.768499,-4.3719997,wlk
0.85011494,-1.8387916,-0.6789854,0.8491,0.106699996,5.3746,-0.3195,-8.7365,-4.443,wlk
0.72143185,-1.8309726,-0.4251273,-0.24749999,0.691,5.4747,-0.25259998,-8.7227,-4.4744,wlk
0.49188614,-2.019887,-0.29839894,-1.5428,0.9396,5.1865997,-0.20269999,-8.7359,-4.4511,wlk
0.24743533,-2.365462,-0.31255355,-2.2807999,1.0813,4.4151,-0.161,-8.7698,-4.3856997,wlk
-0.07771951,-2.5027149,-0.3744953,-2.4033,1.3938,3.7605999,-0.1267,-8.8174,-4.2901998,wlk
-0.22170918,-2.2817736,-0.5010491,-2.9552,1.3698,2.2735,-0.0945,-8.8817,-4.1563997,wlk
-0.23603833,-2.1286907,-0.79499745,-2.9043999,0.4094,0.732,-0.0865,-8.941199,-4.027,wlk
-0.1261524,-2.2440746,-1.0960842,-1.1942999,-0.49289998,-0.6598,-0.1099,-9.0097,-3.8707,wlk
0.08337438,-2.3400502,-1.2343841,0.0802,-1.0196999,-1.4466,-0.17819999,-9.0713,-3.7214,wlk
0.41852996,-2.404889,-1.22564,1.2046,-0.5936,-2.8000998,-0.2631,-9.105,-3.6329,wlk
0.7691317,-2.361064,-1.0611079,2.3673,-1.0151,-2.4877,-0.3766,-9.1249,-3.5727,wlk
0.90647167,-1.8279706,-0.594145,4.1644,-1.9294,-0.9065,-0.4869,-9.122499,-3.5653,wlk
0.5476843,-1.4776306,-0.32847098,5.4522,-1.9106,-0.3996,-0.5586,-9.111899,-3.5818,wlk
-0.64161795,-1.09673,-0.3683692,5.0875998,-0.9184,0.15879999,-0.5667,-9.1039,-3.6009,wlk
-0.4996354,-0.10749483,-0.10625564,3.7022,0.21249999,1.3241,-0.52489996,-9.1071,-3.5992,wlk
0.6096086,-0.11524409,0.34309682,1.7774999,0.87619996,2.7996,-0.4732,-9.1236,-3.5644999,wlk
1.1447788,-0.6527531,0.8093615,-0.7586,-0.2111,3.1527,-0.4181,-9.163899,-3.4664998,wlk
1.2895015,-0.073146746,0.79717916,-3.6966,-3.9261,2.3549,-0.3829,-9.2245,-3.3062,wlk
0.9577669,-0.09152506,0.32833135,-3.6887,-6.6422,-1.8757999,-0.3908,-9.2935,-3.1058998,wlk
0.60877085,-0.76810193,0.039985493,-3.0153,-3.3637,-3.1550999,-0.417,-9.326,-3.0033998,wlk
0.77269214,-1.3007416,-0.10384709,-6.9393997,2.6078,6.1647997,-0.4155,-9.286099,-3.1246998,wlk
0.8226609,-1.5117344,-0.06827728,-7.9512997,4.2669,3.3249998,-0.4039,-9.2585,-3.2073,wlk
0.7685383,-1.5878133,-0.072972216,-2.5848,1.5172,4.9467,-0.4748,-9.293799,-3.0932,wlk
0.83808964,-1.206965,-0.045238934,6.4996,-2.0031,8.7857,-0.66459996,-9.3529,-2.8723,wlk
0.89202034,-0.7605272,-0.04113741,9.114699,-4.2681,4.0903997,-0.8183,-9.412,-2.6292,wlk
0.957889,-0.7638957,-0.0049916417,4.3171997,-1.489,3.6532,-0.88479996,-9.4551,-2.447,wlk
0.9893748,-1.1317587,0.14400712,0.54109997,0.0521,1.6869999,-0.93329996,-9.4861,-2.3048,wlk
1.0025171,-1.2078725,0.27122417,-0.2384,-0.0327,1.3168,-0.9677,-9.5189,-2.1504,wlk
1.0055889,-1.11633,0.28934067,0.0558,-0.4682,2.1498,-1.0169,-9.5541,-1.9634,wlk
1.0467613,-1.1031004,0.21455333,-0.0947,-0.3399,1.8814,-1.0624,-9.5844,-1.7832999,wlk
0.9473473,-1.160068,0.20102702,0.0942,0.2385,1.8612,-1.0945,-9.6137,-1.5963999,wlk
0.78185517,-1.2722752,0.30937707,-0.1555,0.7762,1.2117,-1.1093999,-9.641399,-1.4079,wlk
0.735761,-1.1826177,0.38639843,0.0497,0.44829997,0.4017,-1.1284,-9.6665,-1.2057999,wlk
0.81215405,-1.0604969,0.46237263,1.083,0.19209999,0.5665,-1.1811,-9.684899,-0.98819995,wlk
0.9050754,-0.9013055,0.5902355,1.5489999,-0.0714,0.7448,-1.2548,-9.6959,-0.76449996,wlk
0.88453287,-0.7664439,0.7037691,1.3519,-0.2812,0.2926,-1.3323,-9.701799,-0.51809996,wlk
0.7934092,-0.5637413,0.7952593,0.5248,-0.3277,-0.7899,-1.378,-9.7044,-0.3084,wlk
0.61735785,-0.526688,0.79211766,0.18599999,-0.0157,-0.5355,-1.4217,-9.7026,-0.092,wlk
0.41184536,-0.80087924,0.69392544,0.4617,0.1713,0.4526,-1.4815999,-9.6935,0.096499994,wlk
0.28119,-0.85250604,0.55642843,0.4145,0.27449998,0.6665,-1.5521,-9.6791,0.2749,wlk
0.19943877,-0.5384166,0.4227362,0.4078,0.4597,0.8581,-1.6336,-9.658299,0.4657,wlk
0.18280579,-0.46239007,0.3615973,1.2076,0.3118,0.43739998,-1.7371999,-9.6282,0.67069995,wlk
0.11664035,-0.512132,0.424115,1.6743,-0.0898,0.84779996,-1.8607,-9.5892,0.8682,wlk
-0.11749557,-0.58149135,0.47561967,1.7569,-0.83199996,0.67429996,-2.0019999,-9.5434,1.0418,wlk
-0.49120545,-0.71315897,0.44120178,2.0627,-1.5356,-0.8085,-2.1411,-9.496799,1.1812,wlk
-0.8674112,-0.83538437,0.25590017,2.2528,-2.0568,-0.6178,-2.2528,-9.4560995,1.2944,wlk
-1.3710085,-0.98832756,0.05529203,2.1780999,-2.1878998,-0.14119999,-2.335,-9.4230995,1.3866,wlk
-2.0502732,-1.189791,0.039566614,1.6736,-2.3411,-0.3709,-2.3992999,-9.3974,1.4496,wlk
-2.6128101,-1.382737,0.0006806784,1.6394999,-2.9132,-1.2024,-2.4535,-9.3744,1.5064,wlk
-2.9826107,-1.2991009,-0.19271925,3.0468,-3.5753,-2.0244,-2.5172,-9.3498,1.5537,wlk
-3.1109097,-1.1553382,-0.51070076,4.4904,-4.4785,-2.8460999,-2.5879,-9.3292,1.5613999,wlk
-2.8734403,-1.1765264,-0.8218232,5.5315,-4.055,-3.694,-2.6483,-9.321199,1.5071,wlk
-2.6250973,-0.98220146,-1.0748086,4.822,-3.6208,-4.6632,-2.6743,-9.3337,1.378,wlk
-2.4905849,-1.0722256,-1.312348,3.0221999,-2.4413,-3.9692,-2.6594,-9.3658,1.1743,wlk
-2.3783078,-1.3346009,-1.5036885,1.6633999,-0.88519996,-1.885,-2.6439998,-9.401899,0.8847,wlk
-2.235819,-1.5463094,-1.5989659,1.1937,0.110999994,-1.0045999,-2.6255,-9.437099,0.46519998,wlk
-2.1375222,-1.4558489,-1.61614,1.74,0.73219997,0.98209995,-2.5834,-9.460199,-0.0309,wlk
-1.991316,-1.486078,-1.6389514,2.7877,-0.98609996,3.1404,-2.4935,-9.4677,-0.5613,wlk
-1.8275517,-1.6967742,-1.7156237,2.8831,-3.6425998,3.5879998,-2.3437998,-9.459,-1.0971,wlk
-1.659843,-2.0406914,-1.8197501,2.2525,-4.6507,2.7394,-2.1838999,-9.441299,-1.5037999,wlk
-1.404449,-2.317989,-1.8213732,1.2279,-3.9364,2.8114998,-1.9732,-9.410399,-1.9289,wlk
-1.0803763,-2.4873037,-1.7974273,1.2082,-2.8244998,2.9535,-1.7476,-9.3651,-2.3258998,wlk
-0.75270814,-2.5934196,-1.7657845,1.095,-2.0212998,3.2616,-1.5265,-9.3052,-2.6928,wlk
-0.37304667,-2.5399427,-1.6479224,1.5261999,-1.3725,3.1262999,-1.3105,-9.2283,-3.0477998,wlk
-0.08147197,-2.2959282,-1.4141006,2.3797,-0.9216,3.0247998,-1.1049,-9.1399,-3.3778,wlk
0.10190977,-1.9486951,-1.1227005,1.9324,-0.908,3.6269999,-0.91249996,-9.0456,-3.6759999,wlk
0.248116,-1.5718784,-0.8677428,1.064,-0.6612,4.5982,-0.74039996,-8.9492,-3.9411,wlk
0.37693876,-1.2357804,-0.59669316,0.6595,-0.0246,4.9667997,-0.5908,-8.8503,-4.1823,wlk
0.5364444,-1.0841287,-0.3538655,-0.20009999,0.5574,5.2904997,-0.496,-8.7851,-4.3294997,wlk
0.7086037,-1.0437768,-0.12486085,-1.1353999,1.4488,5.3596,-0.41399997,-8.7352,-4.4378,wlk
0.7256904,-1.1773642,0.031031953,-2.1143,2.0928,4.9196997,-0.3471,-8.712299,-4.4881997,wlk
0.61189497,-1.36298,0.07730063,-2.9548,2.1044,4.2618,-0.3107,-8.7141,-4.4874,wlk
0.3687008,-1.4463544,0.017627826,-3.3686,2.1007,3.3204,-0.28919998,-8.73,-4.4579,wlk
-0.005323254,-1.1513937,-0.17210692,-3.2451,2.2185,2.547,-0.27539998,-8.7595,-4.4005,wlk
-0.3951949,-0.8133409,-0.46116835,-2.7517998,2.1432,1.6869999,-0.2783,-8.7921,-4.3348,wlk
-0.49080405,-1.0490999,-0.7779107,-1.9368,1.7303,0.5661,-0.30879998,-8.840199,-4.2338,wlk
-0.24148375,-1.2833406,-0.9053546,-0.59709996,0.7703,-1.3514,-0.3737,-8.9001,-4.101,wlk
0.2366841,-1.368181,-0.8283682,0.96449995,-0.2206,-2.5697,-0.4741,-8.9583,-3.9613998,wlk
0.8832413,-1.1343768,-0.60227823,2.4282,-1.5467,-4.2436,-0.5943,-9.005199,-3.837,wlk
1.1949571,-0.48199013,-0.07375761,3.5707998,-3.4998999,-4.9467,-0.7073,-9.0329,-3.7517,wlk
0.56114084,0.07105235,0.12911946,3.675,-4.449,-4.6685,-0.7624,-9.0351,-3.7357,wlk
-0.48164105,0.4105887,-0.094544485,3.5332,-2.1892,-2.8676999,-0.73829997,-9.0099,-3.8007998,wlk
0.4107458,1.8228917,0.014643312,2.3518,1.0131999,-0.4382,-0.6847,-8.986,-3.8669,wlk
1.4028432,0.94731236,0.43085197,0.396,2.8107,2.4519,-0.6216,-8.979,-3.8934999,wlk
1.5257319,0.15468854,0.64591146,-2.9912,0.62259996,4.0895,-0.5783,-9.007299,-3.8344998,wlk
1.66939,1.3642889,0.16070992,-6.3128,-5.0537,2.9973998,-0.5518,-9.0873995,-3.6446,wlk
1.6133823,1.5375478,-0.20432569,-4.1563,-7.448,-2.9994,-0.5704,-9.1644,-3.4434998,wlk
1.2705997,0.3843215,-0.28143433,-2.7645,-4.0673,2.037,-0.5893,-9.201,-3.3413,wlk
1.1377802,-0.30836478,-0.058241636,-5.3247,3.6253998,9.4454,-0.5396,-9.1662,-3.4436998,wlk
1.2365483,0.043196898,0.311454,-6.3072,5.6412997,4.8922,-0.4299,-9.191299,-3.3918,wlk
1.2009959,0.21427408,0.40507346,1.8499,2.0223,4.0628,-0.44759998,-9.2792,-3.1409,wlk
1.1919028,0.43160248,0.3159395,9.5808,-3.7961998,8.5851,-0.55869997,-9.3642,-2.858,wlk
1.1907508,0.6891084,0.16128588,5.9087,-4.7469997,5.0298,-0.515,-9.4529,-2.5585,wlk
1.1694753,0.91329587,0.089605205,0.5688,-0.9898,-0.6168,-0.4021,-9.5327,-2.2663,wlk
1.0979168,0.7891157,0.13343042,-3.5516,0.7927,0.0942,-0.3317,-9.5893,-2.0261,wlk
1.0253634,0.55943036,0.1603783,-3.3646998,1.4153,1.9720999,-0.3324,-9.6332,-1.8054,wlk
0.9570164,0.32904693,0.1870993,-1.5898,0.7879,1.5277,-0.391,-9.6727,-1.5669,wlk
0.9589537,0.27452284,0.24525367,0.1495,0.24069999,1.7380999,-0.4633,-9.7041,-1.3361,wlk
0.9657954,0.30613074,0.2870892,1.3183,0.3942,1.5302999,-0.5142,-9.7302,-1.1086,wlk
0.9289864,0.30211648,0.30878365,1.2987,0.33969998,1.0673,-0.5338,-9.7541,-0.86139995,wlk
0.881304,0.3188891,0.34398693,1.3706,-0.0078,-0.1982,-0.537,-9.7692995,-0.6647,wlk
0.98569214,0.5004906,0.40224603,1.476,-0.095,-0.7181,-0.5542,-9.7802,-0.45859998,wlk
1.08275,0.5204746,0.49600512,1.4445,-0.0796,-0.8045,-0.5815,-9.7858,-0.2644,wlk
1.0214714,0.4635071,0.6293483,1.0583,0.2057,-0.26209998,-0.617,-9.786799,-0.081,wlk
0.93345445,0.5180137,0.6512696,1.0376999,0.4966,-0.3286,-0.6651,-9.7835,0.103,wlk
0.76557124,0.54850465,0.62489766,0.9578,0.21419999,-0.6211,-0.7224,-9.7757,0.2877,wlk
0.5400398,0.45619416,0.53864354,0.9518,0.3105,-0.2685,-0.78499997,-9.7641,0.46469998,wlk
0.44734535,0.4230678,0.37751472,0.5615,0.6482,0.4669,-0.85569996,-9.748799,0.6314,wlk
0.42060688,0.5071229,0.14727089,-0.1484,0.4184,0.3931,-0.9499,-9.724899,0.8326,wlk
0.2846981,0.71420616,0.029356439,-0.1511,-0.2164,0.1348,-1.0452,-9.698,1.0124999,wlk
-0.034191,0.944834,0.086393796,0.5791,-0.812,-0.25849998,-1.1773,-9.6614,1.1999999,wlk
-0.61716586,0.7710341,0.20847958,1.5712,-1.4602,-0.8179,-1.3162,-9.6212,1.367,wlk
-1.2666029,0.29365164,0.20373228,2.5307,-2.2644,-0.5967,-1.4519,-9.582,1.4988999,wlk
-2.189149,-0.1497667,0.09950122,3.1871998,-2.5816998,-0.48999998,-1.5690999,-9.549,1.5884,wlk
-2.7689474,-0.61967915,-0.10068805,2.9689,-2.8142998,-1.8953999,-1.6547999,-9.5223,1.6601,wlk
-3.1123934,-0.8042303,-0.4045324,1.9353,-3.059,-3.3999999,-1.6999999,-9.5032,1.7231,wlk
-3.0806632,-0.7810523,-0.66191614,1.6028999,-3.2071998,-4.6847997,-1.7304,-9.4923,1.7526,wlk
-2.8086536,-0.4015828,-0.851232,2.7110999,-3.6797998,-5.3904,-1.7795,-9.490399,1.7128999,wlk
-2.534794,0.20221385,-1.0356435,4.4038997,-4.4713,-5.7846,-1.8443999,-9.503099,1.5677999,wlk
-2.306662,0.31525883,-1.165496,4.5295997,-3.6578,-5.0716,-1.8915999,-9.532,1.3155999,wlk
-2.1814346,-0.3477743,-1.2450656,2.87,-1.2754999,-1.1949999,-1.9089999,-9.580299,0.8616,wlk
-2.1787643,-0.43785074,-1.2060574,0.96269995,0.1617,0.1252,-1.8844999,-9.6153,0.4042,wlk
-2.1049542,-0.47691122,-1.0573205,-0.5488,0.2331,2.8818998,-1.8046999,-9.6377,-0.1655,wlk
-2.1164036,-0.69568825,-0.9421811,-0.8183,-2.4215999,3.1915,-1.6725,-9.6307,-0.7888,wlk
-2.0010026,-1.0021507,-0.8767312,-1.2818999,-5.6851,1.6853,-1.5324999,-9.6033,-1.2636,wlk
-1.8077946,-1.2869359,-0.78473496,-1.663,-5.7908998,0.5882,-1.3278999,-9.556399,-1.7551999,wlk
-1.5555596,-1.5095876,-0.7353072,-1.1366,-3.8611999,1.6486,-1.0698,-9.4855995,-2.2468,wlk
-1.1897386,-1.5568511,-0.7520449,-0.8821,-2.1402,3.0923998,-0.8732,-9.4119,-2.6118999,wlk
-0.70401347,-1.4847516,-0.7739313,-0.16139999,-1.185,2.2382998,-0.672,-9.308,-3.0131,wlk
-0.11442378,-1.2776508,-0.71265286,0.5399,-0.1538,2.4445,-0.49089998,-9.1722,-3.435,wlk
0.43558183,-0.97956604,-0.59950316,-0.0793,0.74579996,2.7861,-0.38149998,-9.0422,-3.7766,wlk
0.906908,-0.70127326,-0.4985882,-0.8143,1.025,3.3637,-0.3035,-8.889999,-4.1286,wlk
1.2732003,-0.48593456,-0.34548792,-0.67789996,1.3689,4.4512,-0.2732,-8.7239,-4.4708,wlk
1.5175638,-0.3605152,-0.17596409,-0.7856,2.0482,5.304,-0.2832,-8.5991,-4.7058,wlk
1.6016886,-0.53288394,-0.06981317,-1.2843,2.7523,5.9297,-0.30429998,-8.4892,-4.9,wlk
1.362753,-0.72057664,0.012915436,-1.729,3.4424999,6.5789,-0.3205,-8.4242,-5.0098,wlk
0.66221285,-0.89694214,0.09016371,-1.6522,4.1907,6.3349,-0.3286,-8.417399,-5.0207996,wlk
-0.4868596,-1.1191051,-0.08415978,-1.4793,4.4340997,5.4509,-0.325,-8.4647,-4.9409,wlk
-1.3199925,-0.60730475,-0.33730233,-1.4274,4.1626,3.9975998,-0.3083,-8.556,-4.7820997,wlk
-1.4120586,-0.8139692,-0.53716,-1.3827,3.4991,1.8923999,-0.2942,-8.677,-4.5597997,wlk
-0.85119706,-1.0481924,-0.6530673,-1.156,1.8628,-1.4323,-0.2953,-8.8255,-4.2651997,wlk
-0.065065876,-0.99021256,-0.54974383,-1.1079,-1.1359999,-4.6629,-0.3238,-8.9451,-4.0060997,wlk
0.6864031,-0.99892175,-0.3737099,0.6762,-4.4921,-8.5809,-0.382,-9.050799,-3.7558,wlk
1.1928627,-0.85878927,-0.17736036,2.8869,-7.5821,-9.5913,-0.4646,-9.0989,-3.628,wlk
1.1593349,-0.5888392,0.50181705,2.2672,-7.5972996,-6.2876,-0.53139997,-9.064099,-3.7052999,wlk
-0.033999015,-0.08798204,0.451028,1.3506,-2.6443,-3.261,-0.51699996,-8.9667,-3.9369998,wlk
-0.07244862,1.4832157,-0.14070845,1.1809,2.7758,-0.6004,-0.48459998,-8.8462,-4.2047,wlk
1.2888035,2.425641,-0.29185396,0.285,5.7560997,1.5065999,-0.4615,-8.7863,-4.3308997,wlk
1.666772,1.2905314,0.22212805,-0.7162,4.3433,2.8230999,-0.45069999,-8.7857,-4.3333,wlk
1.5155915,1.2776858,0.5102819,-4.5606,-0.3999,3.8205998,-0.4701,-8.8477,-4.2030997,wlk
1.5840434,1.8889,0.30119148,-8.2092,-8.1751995,0.108799994,-0.50879997,-8.9471,-3.9824,wlk
1.6616582,1.4570881,-0.048642326,-1.8068999,-10.788,-5.6667,-0.6447,-9.031099,-3.7672,wlk
1.5265522,0.76564103,-0.19737929,0.96809995,-1.755,11.362499,-0.7328,-9.0224,-3.7721,wlk
1.268959,0.35138714,-0.06773623,-4.7299,6.0081,9.4045,-0.59499997,-9.0187,-3.8049,wlk
1.3237101,0.477365,0.15707964,-5.0211997,6.0965,2.6822999,-0.36249998,-9.1168995,-3.5944,wlk
1.3709387,0.6180036,0.30524063,1.9008,1.0864,5.0769,-0.3121,-9.2357,-3.2823,wlk
1.3496282,0.7893426,0.31349605,5.9252,-4.4646,6.259,-0.3256,-9.3234,-3.0228,wlk
1.2803386,0.9791995,0.24357815,4.4116,-5.2774,4.8064,-0.2732,-9.4129,-2.7372,wlk
1.3002703,1.2175417,0.18659315,1.4066,-1.29,0.1823,-0.18069999,-9.507,-2.3985999,wlk
1.311388,1.5444942,0.22704989,-1.0023,0.82229996,0.9912,-0.1156,-9.5699,-2.1385999,wlk
1.1745716,1.2499524,0.31763247,-2.1278,1.2954,2.3665,-0.0884,-9.6212,-1.8957,wlk
1.0083814,0.98967147,0.35142204,-2.0541,0.8558,1.6647999,-0.1033,-9.672,-1.6157999,wlk
0.9097005,0.8427671,0.29169688,-1.1152999,0.088,1.329,-0.1399,-9.7083,-1.378,wlk
0.85501933,0.7574031,0.25867525,-0.044299997,-0.1637,1.4221,-0.1812,-9.741,-1.1180999,wlk
0.8307069,0.6410943,0.26480135,0.49359998,0.037299998,1.3722999,-0.2092,-9.7655,-0.8721,wlk
0.8539547,0.46191883,0.26012388,0.502,0.49719998,0.4761,-0.22739999,-9.7841,-0.6232,wlk
0.91856676,0.50237554,0.28532642,1.1194999,0.22479999,-0.9205,-0.2565,-9.7961,-0.3739,wlk
0.99181825,0.6006725,0.3573387,2.1557999,0.052699998,-0.7611,-0.31219998,-9.8005,-0.15079999,wlk
0.9677327,0.66559875,0.48720866,2.2923,0.0513,-1.3736,-0.38,-9.7992,0.039899997,wlk
0.8367283,0.64818037,0.5963441,1.6455,0.2428,-0.9762,-0.43919998,-9.794499,0.2112,wlk
0.67013663,0.57580155,0.61601394,1.4707999,0.2149,-1.0152,-0.5,-9.7862,0.3876,wlk
0.4658633,0.4980297,0.55913365,1.4246,0.20549999,-0.76309997,-0.55189997,-9.7768,0.52779996,wlk
0.44689155,0.5668306,0.3778987,0.86329997,0.42749998,-0.32639998,-0.6083,-9.7634,0.6893,wlk
0.50672144,0.6945014,0.1454732,0.1814,0.5273,0.2852,-0.67179996,-9.7455,0.8621,wlk
0.37388444,1.0175793,0.067544244,-0.44349998,0.1796,0.081099994,-0.7528,-9.721499,1.0466,wlk
-0.009738937,1.1678172,0.2300693,-0.3829,-0.3797,-0.6843,-0.86249995,-9.6916,1.2236999,wlk
-0.54674184,0.84433794,0.37428585,0.877,-0.77529997,-0.53999996,-0.99469995,-9.6588,1.3736,wlk
-1.1947651,0.3039142,0.25064674,2.6794999,-1.5529,0.2059,-1.13,-9.6265,1.4906,wlk
-2.0672727,-0.24656266,-0.026511552,3.5082998,-2.2474,0.6283,-1.2527,-9.599,1.5683,wlk
-2.602094,-0.76366884,-0.26363197,2.6575,-2.5558999,-1.5019,-1.3434,-9.5748,1.6392,wlk
-3.0499804,-0.92354095,-0.4083896,1.2767999,-2.9789999,-3.5314,-1.3945,-9.5538,1.7171999,wlk
-3.2273755,-0.6023131,-0.5640206,1.0799,-3.5921,-4.8782,-1.4427999,-9.538899,1.7597,wlk
-2.9103715,-0.37720054,-0.75038683,3.5181,-4.3243,-5.1749997,-1.5273,-9.5324,1.7231,wlk
-2.5779734,0.27094492,-0.9542239,5.7749,-4.9456,-5.9168997,-1.6266999,-9.538799,1.5921999,wlk
-2.3230855,0.5116433,-1.1682711,5.5766997,-4.1047,-5.1,-1.6834999,-9.5657,1.3537999,wlk
-2.182028,-0.1044056,-1.3315465,2.2709,-1.7807,-2.0737,-1.6726999,-9.6145,0.9655,wlk
-2.140943,-0.16196655,-1.2542983,-0.6349,0.5703,-1.0479,-1.6107,-9.660999,0.48889998,wlk
-2.090276,-0.47001716,-1.0408446,-1.8239,0.34149998,1.982,-1.5201,-9.6872,-0.1286,wlk
-2.181522,-0.76483816,-0.8310211,-1.4373,-2.04,3.1466,-1.4261,-9.6788,-0.6753,wlk
-2.1135588,-1.1063118,-0.6995978,-1.1437,-5.5466,2.3553998,-1.2882,-9.6438,-1.2276,wlk
-1.9141724,-1.340535,-0.4927588,-1.2665,-6.1233,0.7744,-1.087,-9.5868,-1.7551,wlk
-1.5933111,-1.4708936,-0.42554617,-1.5272,-4.6197,1.2939999,-0.85569996,-9.5213995,-2.1864,wlk
-1.2337732,-1.4140832,-0.45916122,-1.7452999,-2.508,3.187,-0.6082,-9.436399,-2.5986,wlk
-0.77281433,-1.3418092,-0.50696576,-1.2684,-1.1074,1.8520999,-0.3594,-9.316999,-3.0386999,wlk
-0.19664624,-1.153139,-0.49832642,-0.0026,0.5324,1.9627,-0.2131,-9.2015,-3.3846998,wlk
0.42533675,-0.8012981,-0.4413763,-0.6486,1.1241,3.1429,-0.1162,-9.0479,-3.7803998,wlk
0.93757343,-0.49916416,-0.33386403,-1.2355,1.5067999,3.8237998,-0.078499995,-8.8814,-4.1573,wlk
1.3070247,-0.41198498,-0.20345303,-0.95129997,1.8129,4.7369,-0.1077,-8.7168,-4.4916997,wlk
1.4753268,-0.5264786,-0.108524576,-1.0652,2.1079,5.4398,-0.17029999,-8.570499,-4.7630997,wlk
1.356592,-0.7455872,-0.04045673,-1.6725999,2.7546,6.0855,-0.2297,-8.4522,-4.9674997,wlk
1.033933,-0.6831044,0.020664698,-1.7995,3.5914,6.8658,-0.2794,-8.3771,-5.0908,wlk
0.6032207,-0.4905248,-0.023771385,-1.8143,4.3294,6.6956997,-0.3137,-8.3598995,-5.1169,wlk
0.059079394,-0.37569958,-0.06169739,-1.699,4.2969,5.217,-0.32099998,-8.4059,-5.0404997,wlk
-0.57445765,0.0022340214,-0.055065136,-1.4901999,3.4996998,3.0547,-0.3141,-8.5011,-4.8788,wlk
-0.94174474,-0.5166873,-0.14329153,-0.99549997,2.3016,-0.1136,-0.31849998,-8.6269,-4.6523,wlk
-0.6273586,-0.89118254,-0.3301814,-0.59139997,0.24229999,-3.5772998,-0.35,-8.774099,-4.3659997,wlk
0.06379178,-0.6379877,-0.41037926,0.42029998,-2.0363998,-5.0531,-0.4006,-8.8783,-4.1454,wlk
0.7287099,-0.3085393,-0.29037043,1.303,-3.316,-5.5376,-0.4597,-8.9619,-3.9550998,wlk
1.12099,0.00572468,0.0514174,0.1994,-3.916,-6.5627,-0.49359998,-9.0091,-3.842,wlk
0.9967052,-0.17908823,0.6920405,-0.4202,-4.3717,-5.6552997,-0.51129997,-9.014299,-3.8276,wlk
-0.2003987,0.1879196,0.59082884,0.14819999,-2.4445999,-4.3554997,-0.50119996,-8.9702,-3.931,wlk
0.136764,1.9849629,-0.058695424,1.1937,1.1096,-0.9367,-0.5171,-8.8961,-4.094,wlk
1.4788524,2.6733906,-0.36095154,0.61079997,3.856,1.5383999,-0.5324,-8.8476,-4.196,wlk
1.4161253,1.3244431,0.11732103,-2.1051,3.0026,2.4717,-0.51309997,-8.8572,-4.178,wlk
1.3281956,1.5353487,0.26106635,-7.1524,-1.9849,2.5646,-0.4869,-8.92,-4.0453997,wlk
1.5959466,1.8786026,0.043388885,-8.7323,-7.5063,-1.402,-0.4956,-9.007999,-3.8444998,wlk
1.6872622,1.3118593,-0.15460126,-2.0918999,-7.9591,-4.5262,-0.6342,-9.075,-3.6622999,wlk
1.5185935,0.8832239,-0.1091878,3.3753,0.27519998,14.8022995,-0.72749996,-9.0521,-3.7010999,wlk
1.3034468,0.7040658,0.047193702,-3.0191998,5.6208997,7.7033,-0.5699,-9.063,-3.7020998,wlk
1.4241538,0.8455422,0.20971876,-2.3449,4.7885,1.5731,-0.3126,-9.1721,-3.4559999,wlk
1.5055035,1.0280513,0.24300219,3.345,-0.2368,6.1639,-0.2461,-9.265699,-3.2022998,wlk
1.4415023,1.3176887,0.21914354,4.3972,-4.726,5.541,-0.19999999,-9.346499,-2.9619,wlk
1.3611648,1.6574345,0.20929988,1.7303,-4.0478,3.4817,-0.1024,-9.4362,-2.6676998,wlk
1.339226,1.7799217,0.21905628,-0.3849,-0.6484,0.5154,-0.0072,-9.521,-2.3493,wlk
1.2810367,1.8281451,0.26532495,-1.9648,0.6737,1.9704,0.0525,-9.5879,-2.0586998,wlk
1.1307116,1.7076825,0.26782078,-2.1897,0.91279995,2.6183,0.0714,-9.640699,-1.7946,wlk
0.9639977,1.5426965,0.2624975,-1.5879999,0.6094,2.0339,0.058199998,-9.6904,-1.5043,wlk
0.76712453,1.2130562,0.26644197,-0.88449997,0.28399998,1.6913999,0.0411,-9.727799,-1.2401999,wlk
0.7688524,0.76869535,0.2894803,-0.34919998,0.2401,1.597,0.0256,-9.7623,-0.9302,wlk
0.82630867,0.4996354,0.26570892,0.057499997,0.0657,1.0361,0.0111,-9.7841,-0.6635,wlk
0.90404564,0.58670986,0.21626374,0.93179995,0.0299,-0.0824,-0.0099,-9.797299,-0.4274,wlk
0.94813263,0.74724525,0.20579177,2.1495,-0.0703,-0.2933,-0.050899997,-9.8049,-0.1774,wlk
0.8891929,0.6149842,0.31274554,2.519,-0.2557,-0.8285,-0.1065,-9.8057995,0.063599996,wlk
0.80080944,0.47465974,0.453454,1.6180999,0.1627,-1.7696999,-0.15689999,-9.8026,0.22999999,wlk
0.75127697,0.48197266,0.48673743,1.1678,0.40219998,-1.1702,-0.2165,-9.797,0.3759,wlk
0.66736156,0.6561216,0.4367512,1.8492,-0.0179,-1.0718,-0.2801,-9.7887,0.5227,wlk
0.55218726,0.82630867,0.3385415,2.0641,0.019399999,-0.4851,-0.3381,-9.7771,0.68119997,wlk
0.4866676,0.9372942,0.25055948,1.4975,0.5139,-0.3927,-0.38939998,-9.7616,0.85359997,wlk
0.44383723,1.0642145,0.19198622,0.18439999,0.4628,-0.3441,-0.44919997,-9.7399,1.0501,wlk
0.2783451,1.2794136,0.21610667,-0.2386,-0.1757,-0.3768,-0.5164,-9.7191,1.2005,wlk
0.017645279,1.294982,0.28059658,0.2537,-0.4464,-0.45819998,-0.61649996,-9.6936,1.3506,wlk
-0.41856486,1.116906,0.38765508,0.9794,-0.69979995,-0.1853,-0.7245,-9.6657,1.4896,wlk
-1.1413755,0.703455,0.3291691,1.2508,-1.6099,0.0392,-0.82909995,-9.6382,1.6082,wlk
-2.0152967,0.10459758,0.10538298,0.9902,-1.9576999,-0.69979995,-0.9216,-9.613999,1.7001,wlk
-2.6164231,-0.4607669,-0.19607028,0.7179,-2.1854,-2.1482,-1.0023,-9.592299,1.7754999,wlk
-3.035372,-0.8088554,-0.4410447,1.0285,-2.9408998,-3.3095,-1.0775,-9.5723,1.8384999,wlk
-3.2052796,-0.85995865,-0.600306,1.4800999,-3.3091,-4.4912,-1.1661999,-9.557099,1.8629999,wlk
-2.9436898,-0.490263,-0.7590262,2.8955998,-3.4735,-5.9438,-1.2677,-9.5496,1.8348,wlk
-2.6670551,0.07197738,-0.946143,4.8629,-4.3711,-6.5109,-1.3816,-9.554299,1.7253,wlk
-2.4951227,0.06895796,-1.0908133,5.4486,-4.4516997,-5.6545997,-1.4670999,-9.5815,1.4868,wlk
-2.438958,-0.20455259,-1.090726,3.8927,-2.3923,-2.3321,-1.4900999,-9.6305,1.0964999,wlk
-2.4407556,-0.28258625,-0.92156875,1.2678,-0.0179,-0.6536,-1.4442999,-9.6807995,0.6046,wlk
-2.469763,-0.52087605,-0.65303236,-0.90059996,-0.2201,1.6559999,-1.3449999,-9.7139,-0.018299999,wlk
-2.456324,-0.63121575,-0.5281366,-1.5307,-3.1843998,2.5692,-1.2444,-9.7112,-0.5588,wlk
-2.3359835,-0.65486497,-0.39193115,-2.0816,-6.1187,1.2949,-1.1054,-9.6797,-1.1183,wlk
-2.0794725,-1.0473546,-0.2814169,-2.4232,-5.7023,0.8797,-0.92069995,-9.6254,-1.6348,wlk
-1.7188874,-1.0416648,-0.27256808,-2.6547,-3.5519998,2.0557,-0.7089,-9.5496,-2.1145,wlk
-1.2560786,-1.0605668,-0.35952038,-2.6856,-1.8485999,2.9972,-0.5112,-9.4485,-2.5755,wlk
-0.71118677,-1.1126997,-0.4016177,-1.8579999,-1.3446,2.3116,-0.33859998,-9.3053,-3.0765,wlk
-0.07456046,-1.0184869,-0.37309903,-0.19999999,-0.2219,2.7096,-0.2608,-9.163,-3.4843,wlk
0.5568124,-0.72939056,-0.27134633,-0.357,0.736,2.7503998,-0.21169999,-8.983399,-3.9271998,wlk
1.1052647,-0.44374996,-0.18814649,-0.4215,1.4761,4.1731,-0.1962,-8.7918,-4.3398,wlk
1.5478103,-0.48478267,-0.1461015,-0.4543,2.4171,5.0796,-0.2419,-8.6051,-4.6970997,wlk
1.8009878,-0.6651973,-0.14648548,-0.85499996,2.951,5.4639997,-0.3021,-8.4230995,-5.0129,wlk
1.7321346,-0.87982047,-0.048258353,-1.1352999,3.5142999,6.304,-0.3454,-8.3098,-5.1959,wlk
1.2910026,-0.7461457,0.08487536,-1.2713,4.1193,6.8645997,-0.3958,-8.2381,-5.3052998,wlk
0.51445323,-0.6617067,0.12842132,-1.0285,4.7813,6.5544996,-0.44239998,-8.2333,-5.3090997,wlk
-0.48092547,-0.45966735,0.09950122,-0.98679996,4.6658998,4.8868,-0.4743,-8.2943,-5.2104,wlk
-1.0348755,-0.67247534,-0.1922131,-0.49229997,3.8197,2.1285,-0.48819998,-8.4092,-5.0215,wlk
-0.8162905,-1.1491073,-0.48068112,0.089099996,2.2563999,-0.6789,-0.5108,-8.561999,-4.7539,wlk
-0.1267109,-0.8490329,-0.5954365,-0.041699998,-0.5283,-3.6450999,-0.5466,-8.7291,-4.4354,wlk
0.5874604,-0.33114132,-0.4957433,0.7801,-2.8997998,-5.6176996,-0.6134,-8.8779,-4.1201997,wlk
1.185131,0.20797344,-0.17034413,-0.057,-5.3080997,-7.9663997,-0.6882,-8.9801,-3.8799,wlk
1.2256225,-0.06867871,0.5500929,-0.5029,-7.026,-8.421599,-0.76199996,-9.0176,-3.7777,wlk
-0.011170107,-0.061365776,0.605542,0.1776,-4.7499,-5.1846,-0.815,-8.9793,-3.8571,wlk
0.11529645,1.6437162,0.14947,0.98279995,-0.0016999999,-1.6394,-0.8357,-8.892799,-4.0483,wlk
1.3300631,2.1376443,-0.050265484,0.7262,4.1031,1.4056,-0.84389997,-8.8397,-4.1612,wlk
1.435062,1.0826626,0.28698447,-1.397,4.4161997,3.0909,-0.8093,-8.839,-4.1696,wlk
1.5059574,1.3123131,0.2857104,-5.6254997,-0.94089997,4.4918,-0.74869996,-8.8951,-4.0603,wlk
1.5540935,1.6178854,0.017872171,-8.2123995,-6.9835997,0.24249999,-0.7018,-8.9913,-3.8513,wlk
1.4935656,0.9035046,-0.2247635,-2.4787998,-7.4199996,-5.2755,-0.8063,-9.074699,-3.6288,wlk
1.3546373,0.46577603,-0.16884315,1.8815999,-0.13509999,12.671499,-0.9206,-9.063399,-3.6297998,wlk
1.1814134,0.2539803,0.022252947,-2.6039999,4.5582,6.7169,-0.8282,-9.0692,-3.6376998,wlk
1.1810642,0.22122048,0.22314034,-1.1363,4.1822,3.2113,-0.668,-9.163899,-3.4271,wlk
1.2221843,0.3421369,0.22718951,4.8564,-0.1397,6.5603,-0.6493,-9.255,-3.1769998,wlk
1.2067206,0.5783323,0.16545722,5.467,-3.8076,5.2181,-0.62259996,-9.3431,-2.9136,wlk
1.1989714,0.7992037,0.10768682,2.5758,-3.1427999,3.4250998,-0.536,-9.4292,-2.6404998,wlk
1.2544903,1.0400766,0.14821336,-0.22829999,-0.4278,0.60139996,-0.4482,-9.5062,-2.3666,wlk
1.2483642,0.9372767,0.24073327,-2.0368,0.35979998,1.2393,-0.3951,-9.568299,-2.1121,wlk
1.2076806,0.80473644,0.3162013,-1.8563999,0.1716,2.0051,-0.3893,-9.615399,-1.8873999,wlk
1.1832808,0.82105523,0.34220672,-0.6997,0.30359998,2.0214,-0.428,-9.6592,-1.6389999,wlk
1.0690839,0.7338586,0.33986795,0.262,0.5611,1.5956,-0.4581,-9.6911,-1.4288,wlk
0.9664761,0.57494634,0.37250564,0.4358,0.405,1.6413,-0.475,-9.7213,-1.1999999,wlk
0.9068905,0.39734167,0.4200135,0.2923,0.20449999,0.9447,-0.4786,-9.7463,-0.9741,wlk
0.8981988,0.21694443,0.44886377,0.5387,-0.0401,-0.2412,-0.4897,-9.766399,-0.73939997,wlk
0.91738,0.1425585,0.41908845,1.2606,0.0317,-0.19129999,-0.5251,-9.7795,-0.5049,wlk
0.9570338,0.3546858,0.3640757,1.9144,0.15529999,-0.5462,-0.5807,-9.7855,-0.2774,wlk
0.93396056,0.56475365,0.31068605,1.8707,0.2531,-0.82659996,-0.64489996,-9.7852,-0.0559,wlk
0.766409,0.45235443,0.39491564,1.3956,0.3252,-1.1044999,-0.71889997,-9.7789,0.16309999,wlk
0.5035449,0.22574088,0.537701,1.0124999,0.32569999,-0.9334,-0.787,-9.7696,0.3254,wlk
0.38845792,0.23506095,0.56131536,1.2743,0.2721,-0.8587,-0.87219995,-9.755099,0.4958,wlk
0.41922808,0.31449088,0.44860196,1.8841,0.037699997,-0.4806,-0.9623,-9.7365,0.667,wlk
0.41788417,0.4050211,0.25893706,1.9677,-0.111999996,0.17719999,-1.0459,-9.7142,0.8426,wlk
0.26282912,0.6399599,0.23013912,0.9859,-0.0298,-0.24579999,-1.1231999,-9.688499,1.0206,wlk
-0.09236282,0.6347239,0.38849282,-0.2653,-0.2538,-1.0999,-1.1958,-9.6606,1.1882,wlk
-0.6121917,0.17781414,0.45092326,0.2144,-1.0184,-0.4423,-1.2832999,-9.631599,1.3248999,wlk
-1.3281606,-0.27052602,0.3085393,1.6773,-1.939,0.4867,-1.3929,-9.6034,1.4157,wlk
-2.1961827,-0.6686182,0.047769662,2.949,-2.3195,-0.45369998,-1.5073999,-9.5758,1.4834,wlk
-2.7230976,-0.9243089,-0.19146262,2.8678,-2.866,-1.8283999,-1.6027,-9.5491,1.5538,wlk
-3.1729562,-0.7468962,-0.47525316,1.665,-3.5349,-3.1207,-1.665,-9.5274,1.6202999,wlk
-3.1130216,-0.74422586,-0.6770307,1.8768,-3.9729998,-4.1003,-1.7297,-9.511,1.6486,wlk
-2.8519552,-0.5653994,-0.8792445,3.7266998,-4.6605,-4.7074,-1.8241999,-9.500199,1.6085,wlk
-2.6106634,-0.09901253,-1.0579139,4.8378,-4.933,-5.9572997,-1.9153999,-9.502299,1.4855,wlk
-2.4504945,-0.20919517,-1.2004724,4.3203,-3.5456,-4.2539,-1.9667,-9.5266,1.2433,wlk
-2.3931255,-0.73570865,-1.2612971,2.1578,-0.8797,-1.6833999,-1.9616,-9.5741,0.8106,wlk
-2.3760912,-0.6803992,-1.1227703,0.57519996,0.9604,0.1078,-1.9187,-9.609799,0.3726,wlk
-2.302927,-0.6623699,-0.9359328,-0.45889997,0.012499999,2.1812,-1.826,-9.6328,-0.2101,wlk
-2.2148752,-1.0340203,-0.9593028,-0.5819,-2.858,2.8822,-1.7028999,-9.6258,-0.78349996,wlk
-2.0997183,-1.2199502,-0.95404935,-1.3176999,-5.4193997,1.4017999,-1.5457,-9.5945,-1.3134999,wlk
-1.914312,-1.4015168,-0.81349796,-1.2523999,-4.98,1.1926,-1.3463,-9.5435,-1.8104,wlk
-1.58907,-1.5708836,-0.7580663,-1.0919,-3.8037,2.6899998,-1.1047,-9.4646,-2.3172998,wlk
-1.1167314,-1.5527846,-0.7961843,-1.204,-2.4572,3.563,-0.92399997,-9.3793,-2.7098,wlk
-0.57327086,-1.4546272,-0.7717846,-0.2131,-1.4629999,2.4782999,-0.738,-9.2458,-3.1843998,wlk
0.019547688,-1.2748059,-0.68354076,0.96669996,-0.5714,2.4292,-0.6235,-9.117499,-3.5569,wlk
0.59774035,-0.9500874,-0.5732883,0.1353,0.254,3.2394998,-0.5276,-8.962299,-3.9455998,wlk
1.0665532,-0.6987251,-0.49771553,-0.8321,1.2692,4.0972,-0.4525,-8.781099,-4.3423,wlk
1.5051371,-0.6882008,-0.3549476,-0.78749996,2.1508,5.1706,-0.4382,-8.632999,-4.6312,wlk
1.8425092,-0.7958876,-0.20811306,-0.9149,2.8693,5.7718,-0.4579,-8.4885,-4.8891997,wlk
1.7972703,-1.041054,0.000715585,-1.4415,3.6866999,6.1591,-0.48049998,-8.3742,-5.0804,wlk
1.1202744,-1.064965,0.2703864,-1.4333999,4.5429,6.5463,-0.4985,-8.328199,-5.1538,wlk
-0.097424276,-0.9990265,0.2040988,-1.1316999,4.9245,6.2848997,-0.5157,-8.3372,-5.1376,wlk
-1.137082,-0.63484603,-0.12358677,-1.1507,4.6773,4.8708,-0.51629996,-8.4039,-5.0277,wlk
-1.2101415,-0.6800152,-0.41188025,-1.2738999,3.8755999,3.0553,-0.501,-8.5142,-4.8401,wlk
-0.7688524,-0.914378,-0.5579643,-1.2502999,2.4561,0.3114,-0.5049,-8.6736,-4.5478997,wlk
-0.079813905,-0.8150688,-0.5479287,-1.6222,-0.6125,-3.8107,-0.5352,-8.8214,-4.2503,wlk
0.51143384,-0.71418875,-0.51965433,-0.60539997,-4.1726,-8.163199,-0.6203,-8.9683,-3.9185,wlk
0.8489805,-0.7325147,-0.20661208,1.2699,-7.5035996,-10.2429,-0.7502,-9.0499,-3.702,wlk
0.430468,-0.81327105,0.5276654,1.5279,-7.3571997,-6.9365997,-0.86109996,-9.0394,-3.7036,wlk
-0.35489523,0.37697366,0.33999014,0.9361,-2.5184999,-2.8694,-0.8871,-8.9552,-3.8971,wlk
0.60276693,2.1439798,-0.15760323,0.9759,1.9813,-0.8024,-0.868,-8.8656,-4.1008,wlk
1.6049175,1.4447137,0.0019373155,1.2181,4.8591,1.6125,-0.8455,-8.8112,-4.2211,wlk
1.5589455,0.89085096,0.39943606,-0.24129999,3.4101,2.5937,-0.81769997,-8.813499,-4.2216,wlk
1.6906132,1.7092707,0.3339862,-6.4224,-2.7856998,1.8642,-0.7854,-8.8645,-4.1197,wlk
1.9753985,1.7252405,-0.12107349,-7.7532997,-9.245,-2.2212,-0.8078,-8.936399,-3.9569,wlk
1.8168179,0.7535808,-0.2491283,1.6327,-6.7788997,2.4924998,-0.9658,-8.9607,-3.8655,wlk
1.325019,0.050056044,-0.075625114,-0.43449998,2.1204998,11.693399,-0.99719995,-8.9263,-3.9364,wlk
1.2730432,0.16966346,0.27180013,-6.0727,5.6812,4.9065,-0.8016,-8.9762,-3.8669999,wlk
1.377693,0.21423917,0.49094367,-0.3453,3.6926,3.6671999,-0.69409996,-9.096,-3.5985,wlk
1.3585469,0.25755823,0.40619048,6.5011997,-1.8535999,7.3759,-0.7055,-9.1984,-3.3258,wlk
1.3184566,0.5492202,0.21560052,6.5228996,-5.2908,7.8415,-0.65849996,-9.3014,-3.0363,wlk
1.305035,0.9390046,0.084997535,2.3709,-3.5189,1.3533,-0.537,-9.415999,-2.687,wlk
1.3059775,1.1330677,0.112399206,-1.0288,-0.022,-0.1794,-0.45189998,-9.51,-2.3506,wlk
1.2606688,0.98864174,0.2134014,-3.1343,1.0378,2.1374,-0.43519998,-9.5696,-2.0981998,wlk
1.0863278,0.83533204,0.29518753,-2.373,1.0267999,1.6985999,-0.4807,-9.617499,-1.8555,wlk
0.8927708,0.62128484,0.28602457,-0.3048,0.2945,1.7293999,-0.5679,-9.6598,-1.5920999,wlk
0.7950324,0.40332812,0.30579913,1.0875,0.401,1.6593,-0.6462,-9.6977,-1.3061999,wlk
0.88086766,0.10498156,0.30037117,0.6917,0.27969998,1.4353,-0.6721,-9.723499,-1.0823,wlk
1.0369699,-0.028693212,0.26047292,0.47439998,0.24479999,0.49749997,-0.6705,-9.747499,-0.8407,wlk
1.1474493,0.17983873,0.21916099,1.1173999,0.0268,-0.1343,-0.67609996,-9.7648,-0.60109997,wlk
1.217629,0.33094934,0.2666165,2.3263,-0.20899999,-0.90629995,-0.7082,-9.774,-0.36839998,wlk
1.1065388,0.2766696,0.42268384,2.2618,-0.1389,-1.4398999,-0.7614,-9.775499,-0.1683,wlk
0.9331403,0.29143506,0.5817008,1.287,0.42679998,-1.1241,-0.81619996,-9.7726,-0.0036,wlk
0.72535884,0.33629003,0.66607,1.612,0.86179996,-0.3606,-0.87649995,-9.7663,0.1449,wlk
0.44731042,0.41572,0.6363296,2.5145,0.4797,0.4989,-0.9357,-9.7568,0.315,wlk
0.3721391,0.43779838,0.46160468,1.9523,0.0427,0.7662,-0.9912,-9.7415,0.538,wlk
0.44685665,0.28874728,0.26174703,0.1295,0.1139,0.2644,-1.0317,-9.7244,0.73579997,wlk
0.386189,0.43870595,0.12149237,-1.4311,0.1169,-0.82799995,-1.0891,-9.698,0.96529996,wlk
0.14320427,0.7526034,0.13714798,-1.6376,-0.4262,-1.2714,-1.1768,-9.6648,1.1733,wlk
-0.2867925,0.6454053,0.311262,0.161,-1.1644,-1.4222,-1.3083999,-9.6228,1.3634,wlk
-0.89294535,0.18652333,0.41385248,2.7168,-1.9545,0.14729999,-1.4320999,-9.5878,1.4805,wlk
-1.7153794,-0.12489576,0.31681216,3.8453,-2.5692,0.8612,-1.5799999,-9.5518,1.561,wlk
-2.533869,-0.5097234,0.04834562,3.2996,-2.6619,-1.1119,-1.6717,-9.527599,1.6121,wlk
-2.9527655,-0.9645737,-0.36571628,2.3685,-2.9503999,-3.0112,-1.731,-9.504,1.6873,wlk
-3.2460158,-0.8639903,-0.77832955,1.6710999,-3.3994,-4.148,-1.7691,-9.4865,1.7452999,wlk
-3.0667703,-0.73506284,-0.9150587,1.7822,-3.7819,-4.8933997,-1.8213999,-9.4765,1.7455,wlk
-2.8291612,-0.34423128,-1.0282782,3.4501,-4.2644997,-5.7486,-1.9103999,-9.4745,1.6592,wlk
-2.588847,0.013159783,-1.1187735,4.5752997,-4.4399,-6.1584997,-1.9863,-9.4854,1.5002999,wlk
-2.4257283,-0.21903881,-1.2057084,4.5144,-2.7886,-3.2681,-2.0430999,-9.5185995,1.1793,wlk
-2.4519258,-0.48455575,-1.2049055,2.8959,-0.3399,-0.7852,-2.0427,-9.5647,0.7165,wlk
-2.3630362,-0.3543891,-1.0450507,0.95369995,0.2113,1.8998,-1.9638,-9.6061,0.1889,wlk
-2.3312187,-0.63959336,-0.9361248,-0.96919996,-1.4527999,3.0311,-1.8158,-9.6286,-0.40289998,wlk
-2.2992618,-1.1667526,-0.9807529,-1.8218,-4.719,2.1348999,-1.6495999,-9.6182995,-0.9679,wlk
-2.1795323,-1.4741924,-0.83472115,-2.3443,-6.0709,1.0297999,-1.4606,-9.5803995,-1.5005,wlk
-1.8751643,-1.7057976,-0.6592458,-1.9113,-4.5621,1.4952999,-1.2464,-9.5202,-1.9954,wlk
-1.394745,-1.648638,-0.67748445,-1.5928999,-3.0142999,3.3098,-1.0057,-9.4302,-2.4958,wlk
-0.8300088,-1.4763914,-0.7481877,-1.1649,-2.2015998,3.4315,-0.8257,-9.3309,-2.9018998,wlk
-0.19699532,-1.2825902,-0.71832514,0.6737,-1.3332,2.1773999,-0.6541,-9.198999,-3.3346,wlk
0.44760713,-0.9859714,-0.6106209,1.0385,-0.242,3.2033,-0.52849996,-9.0448,-3.7524,wlk
0.9947853,-0.6754075,-0.49925143,-0.2708,0.8998,3.7215998,-0.445,-8.8726,-4.1531,wlk
1.4302449,-0.43645447,-0.35466835,-0.3877,2.1104,4.6703,-0.4262,-8.6907,-4.5232,wlk
1.7216974,-0.3607421,-0.1630661,-0.37109998,2.8137,5.9486,-0.47219998,-8.5212,-4.8307,wlk
1.7125695,-0.560687,0.028885199,-0.86219996,3.4573998,6.5407996,-0.5205,-8.3901,-5.0502,wlk
1.1070797,-0.8279493,0.14161602,-1.4149,4.1061997,6.8206,-0.5464,-8.3132,-5.1731,wlk
0.2764427,-0.84716535,0.19123572,-1.5778999,4.5841,6.9862,-0.5599,-8.300799,-5.1916,wlk
-0.31391492,-0.7787834,-0.10915289,-1.4604,4.6664,6.1847,-0.5597,-8.3537,-5.106,wlk
-1.0010511,-0.29255208,-0.36596063,-1.7021999,4.105,4.6664,-0.5434,-8.4591,-4.9312,wlk
-1.2014847,-0.6373768,-0.48130944,-2.0248,3.1185,2.3976,-0.5248,-8.6004,-4.6825,wlk
-0.8267799,-0.9945584,-0.5714906,-1.9813,0.9325,-1.9355999,-0.5291,-8.7582,-4.3798,wlk
-0.1743933,-1.1170456,-0.5575105,-1.0953,-2.5121999,-7.7261996,-0.5816,-8.902699,-4.0710998,wlk
0.59386575,-1.1746764,-0.44011968,1.3393999,-5.8977,-8.4937,-0.67249995,-8.9887,-3.8625998,wlk
1.2960815,-0.8600459,-0.27288222,3.3116999,-7.4679,-7.6045,-0.7718,-9.0072,-3.8005998,wlk
1.4472619,-0.53576374,0.2933375,1.2627,-5.7641997,-6.0305,-0.81159997,-8.9848995,-3.8446999,wlk
0.3100403,0.08182103,0.14997615,0.8573,-1.6006,-3.3161,-0.76909995,-8.912,-4.0192,wlk
-0.16770868,1.6607506,-0.3920533,1.7628,3.0149999,-0.56229997,-0.7331,-8.810699,-4.2429,wlk
1.099889,2.6584854,-0.44326127,0.96489996,5.3023,1.5069,-0.7197,-8.7542,-4.3606,wlk
1.6709782,1.1237302,0.29356438,-0.153,4.3529,2.8367999,-0.7197,-8.7463,-4.3764997,wlk
1.615215,0.83662355,0.6575179,-4.0538,-0.5081,5.4342,-0.74149996,-8.7983,-4.2672,wlk
1.6643285,1.8293494,0.45436156,-7.3651,-7.9673,0.308,-0.76449996,-8.9099,-4.0246997,wlk
1.5530114,1.2652415,0.030298917,-0.80829996,-10.9289,-6.1285,-0.8587,-9.017799,-3.7565,wlk
1.5244927,0.7037691,-0.19851375,1.2915,-2.4844,10.135099,-0.8797,-9.0383,-3.702,wlk
1.2782792,0.2889567,-0.111177474,-5.5227,6.4234,9.5442,-0.68479997,-9.031899,-3.7582,wlk
1.2486609,0.29675832,0.15259413,-7.5343,7.3915997,3.2738,-0.40899998,-9.1175995,-3.5876,wlk
1.2910026,0.38713148,0.25801203,1.6212,2.0714,5.4474,-0.38549998,-9.2302,-3.2898998,wlk
1.3023821,0.61882395,0.23888321,6.7704,-5.2658997,6.2725997,-0.4549,-9.3263,-2.9970999,wlk
1.2590282,0.81405646,0.18936822,5.2214,-6.3518996,4.6137,-0.4358,-9.4171,-2.7014,wlk
1.2216258,1.2953833,0.15482816,1.5828999,-1.0653,0.8782,-0.37669998,-9.4964,-2.4178998,wlk
1.1234335,1.2398645,0.21052161,-1.1642,1.0254999,0.73939997,-0.3067,-9.5671,-2.132,wlk
1.0058856,1.0971314,0.25455627,-2.0600998,1.0088999,2.0355,-0.2738,-9.6192,-1.8884,wlk
0.91923,0.9460208,0.22441444,-1.7371999,0.6796,1.6883999,-0.2926,-9.662499,-1.6492,wlk
0.8381944,0.65051913,0.1945693,-1.0127,0.3055,1.333,-0.3308,-9.7003,-1.4016,wlk
0.8398175,0.43130577,0.21038198,0.1292,0.14379999,1.2357,-0.3646,-9.7347,-1.1278,wlk
0.8504989,0.31464794,0.2064201,0.19649999,0.1166,1.1772,-0.38279998,-9.756499,-0.91239995,wlk
0.8707797,0.34323645,0.18041469,0.8042,0.0663,-0.2674,-0.39229998,-9.7748995,-0.6838,wlk
0.9358281,0.43476152,0.19380136,1.9096999,-0.0694,-0.4967,-0.4191,-9.7862,-0.47399998,wlk
0.9421811,0.4148822,0.28670523,2.4654999,-0.083299994,-1.2322999,-0.46499997,-9.7919,-0.268,wlk
0.9243089,0.372174,0.43971825,1.884,0.0453,-0.8272,-0.50119996,-9.793099,-0.114199996,wlk
0.8791747,0.43544218,0.5539675,1.4999,0.36749998,-0.357,-0.53889996,-9.791699,0.043199997,wlk
0.7746993,0.46472883,0.59131753,1.5224999,0.2454,-0.3205,-0.5811,-9.7873,0.20279999,wlk
0.6490705,0.42874014,0.54251814,1.2508999,0.2479,-0.4145,-0.6232,-9.7799,0.3655,wlk
0.5796238,0.51443577,0.43394122,0.6616,0.6006,-0.3647,-0.6616,-9.7698,0.53139997,wlk
0.6273237,0.69317496,0.24675465,-0.089499995,0.6942,-0.1296,-0.7048,-9.7556,0.7082,wlk
0.5721015,0.85500187,0.12618731,-0.5762,0.2925,0.0359,-0.7672,-9.7362995,0.8858,wlk
0.3748269,0.99967223,0.17029178,-0.1108,-0.2131,0.1171,-0.85999995,-9.7112,1.0596,wlk
0.04680973,1.0646334,0.3373896,0.9773,-0.5571,0.19,-0.9773,-9.6809,1.2221,wlk
-0.35686746,0.89275336,0.45678756,1.9175999,-1.1092,0.3538,-1.1036,-9.6486,1.3622,wlk
-0.98886865,0.573585,0.3917566,2.4264998,-1.9247999,0.4642,-1.2203,-9.6175995,1.4774,wlk
-1.8258587,0.039357174,0.115366265,2.1332998,-2.0319,-0.7813,-1.3192999,-9.588799,1.5756999,wlk
-2.4787865,-0.56796503,-0.25965264,0.987,-2.4807,-2.442,-1.3891,-9.5617,1.6771,wlk
-2.9353995,-0.9279218,-0.5189911,0.3202,-2.879,-3.6339,-1.448,-9.536099,1.7706,wlk
-3.2776935,-0.8156971,-0.69696236,0.9896,-2.7976,-4.5738,-1.5094,-9.5195,1.8083999,wlk
-3.141331,-0.45870742,-0.7601956,2.995,-2.8404999,-5.3413,-1.622,-9.506,1.7815,wlk
-2.788914,0.09878564,-0.8542339,4.6505,-4.1768,-5.5966,-1.7281,-9.5034,1.6935999,wlk
-2.495786,0.6230825,-0.9820095,5.1159,-4.9438,-5.2901,-1.8208,-9.5209,1.4850999,wlk
-2.339317,0.52007324,-1.051875,4.0798,-3.0368998,-2.7435,-1.8438,-9.5645,1.1352,wlk
-2.340539,0.101229094,-1.0886492,1.8719,-0.266,-0.89599997,-1.7837,-9.6189995,0.6803,wlk
-2.2860322,-0.14137167,-0.9302954,-0.6286,0.60969996,1.7854999,-1.6759,-9.6612,0.1463,wlk
-2.307552,-0.45130724,-0.7763748,-2.9575,-1.8886,2.707,-1.5436,-9.6734,-0.4613,wlk
-2.2503753,-0.8658055,-0.6701017,-3.9998,-5.0618,2.1434,-1.4036,-9.6481,-1.0548999,wlk
-2.1024237,-1.2619255,-0.4901059,-3.6079,-6.0055,0.9471,-1.2365,-9.5968,-1.5942999,wlk
-1.803693,-1.3136919,-0.3355919,-2.8379998,-4.3589997,1.5464,-1.0257,-9.5272,-2.0858,wlk
-1.3625262,-1.1581132,-0.32246703,-1.6495,-2.7612,2.8625998,-0.8021,-9.4382,-2.539,wlk
-0.840568,-1.0098475,-0.36323792,-0.9278,-1.7866,2.8423,-0.5922,-9.3242,-2.9796,wlk
-0.23928463,-0.79346156,-0.3425907,0.39319998,-0.3786,2.1780999,-0.41279998,-9.172999,-3.4431999,wlk
0.39964548,-0.530423,-0.27881634,0.0993,0.84849995,2.7689,-0.31509998,-9.0272,-3.8181999,wlk
0.97776836,-0.26171213,-0.20486675,-0.8433,1.4168999,3.5879,-0.26479998,-8.8503,-4.2155,wlk
1.423124,-0.19182913,-0.15432201,-1.1222,1.7349,4.8514,-0.2898,-8.6682,-4.5768,wlk
1.6478351,-0.25001842,-0.14880677,-1.1243,2.3804998,5.7507,-0.35639998,-8.4999,-4.878,wlk
1.5360469,-0.22722441,-0.11163126,-1.4848,3.1395,6.1481,-0.4175,-8.3665,-5.0987,wlk
1.181361,-0.11681489,-0.07990117,-1.5738,3.9692998,6.5666,-0.46589997,-8.2744,-5.2427,wlk
0.85023713,-0.12257447,-0.06387905,-1.3634,4.744,6.3894,-0.48999998,-8.2548,-5.2714,wlk
0.52879983,-0.074281216,0.007749262,-0.9716,4.5924997,5.2489,-0.49929997,-8.299399,-5.1998997,wlk
0.12644911,0.16135569,0.08316494,-0.43969998,3.6453998,3.1216,-0.4919,-8.4016,-5.0339,wlk
-0.31764993,-0.14761995,0.06857399,-0.192,2.4628,0.5151,-0.4845,-8.543,-4.7908,wlk
-0.50111896,-1.0012256,-0.04703662,-0.25329998,0.5875,-2.5760999,-0.48209998,-8.697599,-4.5042,wlk
-0.051015973,-0.9817477,-0.20640263,0.5118,-1.5718,-4.554,-0.4824,-8.833,-4.2325997,wlk
0.59606487,-0.55991906,-0.2533171,0.84059995,-2.9837,-4.6376,-0.47779998,-8.9313,-4.0215,wlk
1.0834305,0.06956882,-0.043912485,-0.0633,-3.0042,-4.2324,-0.47599998,-8.999,-3.8678,wlk
1.1918504,0.055152405,0.54827774,-0.1935,-2.8853998,-4.5051,-0.48299998,-9.0394,-3.7717,wlk
0.19970058,-0.0043458696,0.66964793,-0.0828,-2.8767,-5.5463,-0.48589998,-9.0480995,-3.7503,wlk
-0.482409,0.9769306,0.19003145,0.7448,-1.3225,-3.9606,-0.5094,-9.0234995,-3.8061998,wlk
1.2355535,2.7997525,-0.5701293,1.0291,1.3363,0.1982,-0.5779,-8.9854,-3.8855,wlk
1.4968642,1.7538813,-0.29222047,-0.96169996,1.933,1.8528999,-0.6171,-8.984,-3.8827999,wlk
1.1838568,1.1808897,0.19657643,-5.4558997,-1.6367999,2.827,-0.6143,-9.0327,-3.7684999,wlk
1.4377325,1.7255895,0.048956484,-8.5496,-6.4915,-0.8795,-0.5999,-9.1206,-3.553,wlk
1.6516225,1.409109,-0.2056347,-5.3443,-6.7695,-4.706,-0.6965,-9.1956,-3.3353,wlk
1.3787228,0.9000139,-0.16029103,2.3569999,-0.7944,7.5091996,-0.80759996,-9.1985,-3.3021998,wlk
1.2364087,0.73211324,-0.016283922,2.5519,5.5249,13.8797,-0.7769,-9.163199,-3.4062,wlk
1.3116673,0.733335,0.059812434,-3.5734,4.3684998,1.537,-0.4865,-9.2522,-3.2138999,wlk
1.4187607,0.8634318,0.027750734,0.66719997,0.7661,3.4301,-0.324,-9.3469,-2.9496,wlk
1.4334564,1.1803312,-0.026040312,4.3241997,-2.8158,7.0006,-0.29369998,-9.413,-2.7347,wlk
1.3732076,1.5746709,0.008639379,1.89,-3.0256,3.2561,-0.2131,-9.487599,-2.4716,wlk
1.3137268,1.5910945,0.10543534,-0.89169997,-0.82299995,0.0902,-0.0986,-9.572,-2.1299999,wlk
1.2388871,1.6520065,0.20430824,-1.8443999,0.24689999,1.6868999,-0.038399998,-9.6221,-1.8928,wlk
1.0898534,1.5698014,0.21451841,-1.6675999,0.32029998,2.4882,-0.0092,-9.665999,-1.6545999,wlk
0.8921076,1.5239516,0.20957914,-1.0214,0.478,2.0084999,0.0015,-9.7060995,-1.4004999,wlk
0.70256484,1.3234483,0.18463838,-0.8613,0.73939997,1.8304,0.0179,-9.7418995,-1.1243,wlk
0.66388834,1.0187138,0.15154694,-1.1838,0.6696,1.638,0.0462,-9.7701,-0.8437,wlk
0.69595003,0.8484569,0.10259046,-1.1357,0.16929999,1.2499,0.0668,-9.789599,-0.5732,wlk
0.7530398,0.9636661,0.023387412,-0.30539998,-0.054199997,0.2941,0.0603,-9.8014,-0.3137,wlk
0.80258965,1.0551738,-0.011274827,0.86579996,-0.3042,-0.2445,0.0265,-9.8063,-0.0692,wlk
0.78618354,0.90765846,0.10618583,1.4628999,-0.2269,-0.9407,-0.0213,-9.8052,0.166,wlk
0.76653117,0.7742455,0.2819405,0.977,-0.182,-1.3814,-0.065,-9.8011,0.3223,wlk
0.75372046,0.7614697,0.35821137,1.0627999,-0.3349,-1.0559,-0.111499995,-9.7953,0.45769998,wlk
0.6996501,0.85173815,0.3042109,1.7601,-0.6364,-0.7126,-0.15179999,-9.7879,0.5851,wlk
0.5512797,0.9438566,0.19209094,2.0953,0.0111,-0.52239996,-0.183,-9.7785,0.71849996,wlk
0.41961205,1.0567969,0.08740609,1.2325,0.8131,-0.4502,-0.20279999,-9.7664995,0.8621,wlk
0.46471137,1.2883497,0.0034906585,-0.1894,0.7866,-0.4019,-0.2223,-9.7499,1.0295,wlk
0.49712214,1.5932064,-0.019198623,-0.8688,0.30969998,-0.22209999,-0.2589,-9.7339,1.1635,wlk
0.3549127,1.7785952,0.08604473,0.0779,-0.1129,-0.20979999,-0.3329,-9.7133,1.3081,wlk
0.024958208,1.829838,0.22225022,1.4727,0.0008,-0.085499994,-0.42339998,-9.689799,1.4487,wlk
-0.499042,1.6025438,0.118246056,2.0869,-0.49379998,0.5811,-0.5081,-9.6657,1.5762,wlk
-1.0515085,1.1841012,-0.19999728,1.8311,-0.9159,0.76919997,-0.5758,-9.6456995,1.6725,wlk
-1.816626,0.76059705,-0.49865803,0.6734,-1.2271,0.47849998,-0.63409996,-9.628799,1.7475,wlk
-2.4246638,0.48523644,-0.50181705,-0.7654,-1.9382999,-1.401,-0.676,-9.6138,1.8129,wlk
-2.9184349,0.44788638,-0.30415854,-0.9259,-2.4566,-2.9745998,-0.7313,-9.595699,1.8859999,wlk
-3.1761677,0.5734279,-0.18589501,0.8242,-2.9241,-3.8133998,-0.8242,-9.5793,1.9304999,wlk
-3.0547101,0.70801026,-0.27584928,3.5440998,-4.2915998,-4.3479,-0.92569995,-9.5749,1.9060999,wlk
-2.5894578,1.1531739,-0.5173854,4.5477,-5.1189,-5.2903,-1.0074999,-9.591,1.7795,wlk
-2.2379658,1.4167885,-0.72307247,3.3716998,-4.3701,-4.6396,-1.0083,-9.633699,1.5309,wlk
-2.182639,1.4581004,-0.78463024,-0.0991,-2.7868,-3.0746999,-0.9403,-9.6872,1.2017,wlk
-2.118149,1.3259441,-0.5495344,-3.4136,-0.4364,-1.9869,-0.8522,-9.7428,0.72179997,wlk
-2.2082953,0.6388429,-0.31876692,-5.3676,0.3893,0.011,-0.7909,-9.7743,0.087,wlk
-2.2715461,0.37081265,-0.11416198,-4.8335,-1.7472999,1.6072999,-0.75619996,-9.7656,-0.47959998,wlk
-2.0104272,0.21439624,0.080058254,-3.5254,-5.1548,2.6445,-0.6914,-9.7218,-1.0852,wlk
-1.7428683,0.0347146,0.19465657,-2.8525,-5.6591997,1.4251,-0.56009996,-9.6587,-1.6015999,wlk
-1.4627779,0.063111104,0.2737898,-3.2198,-3.5472,2.5161998,-0.36929998,-9.583799,-2.0455,wlk
-1.1174994,-0.148161,0.25052455,-3.9648,-1.0232999,2.4301999,-0.1539,-9.4893,-2.4694,wlk
-0.626102,-0.2795843,0.30995303,-3.188,0.6098,1.2429999,0.020499999,-9.3769,-2.8709,wlk
-0.04223697,-0.20762436,0.39111084,-2.2470999,1.1796,2.1043,0.1191,-9.2406,-3.2811,wlk
0.5671971,0.019111356,0.41411427,-1.8034999,0.68729997,3.0293999,0.16579999,-9.0817995,-3.6962998,wlk
1.1194018,0.30363494,0.43802527,-1.3646,0.6821,3.7893999,0.1682,-8.9098,-4.0934,wlk
1.4631793,0.41479495,0.47509608,-1.0028,1.5011,3.9685998,0.1398,-8.777599,-4.3707,wlk
1.5713199,0.46176177,0.39449677,-0.99009997,2.3606,4.4586,0.0976,-8.6467,-4.6254,wlk
1.4306638,0.40837213,0.3045774,-1.5800999,3.2459998,5.6217,0.0405,-8.5416,-4.8176,wlk
1.1013551,0.44158575,0.24862215,-1.2745,4.1559,6.1597,-0.039499998,-8.480599,-4.9241,wlk
0.71645766,0.76623446,0.16163494,-0.8063,4.6801,6.0004,-0.13509999,-8.4753,-4.9315,wlk
0.3319267,0.8651422,0.10520845,-0.921,4.1404,4.4034,-0.1968,-8.524,-4.8447,wlk
0.09955358,0.9671044,0.2083225,-0.2078,2.97,2.3102,-0.24319999,-8.6285,-4.654,wlk
-0.170955,0.7988721,0.37212166,0.2491,2.1585999,-0.1779,-0.2883,-8.7585,-4.4017,wlk
-0.33571407,0.050178215,0.41852996,0.0931,0.4466,-3.7475,-0.3187,-8.8901,-4.1271,wlk
-0.125367,-0.39098865,0.2944545,1.2035999,-1.5295999,-5.0698,-0.34059998,-9.0026,-3.8737,wlk
0.3640757,-0.22910938,0.1993166,1.4408,-2.2621,-4.8247,-0.3523,-9.0841,-3.6775,wlk
0.8724377,0.579554,0.22727677,-0.203,-2.1231,-4.6559,-0.32639998,-9.1348,-3.5521,wlk
1.113171,1.1371343,0.2997952,-1.9411999,-2.5024,-4.1328,-0.2848,-9.157599,-3.4966998,wlk
0.51057863,1.2211196,0.083932884,-2.9708,-2.575,-4.5675,-0.2555,-9.1634,-3.4836,wlk
-0.33250266,1.8245498,-0.20352285,-1.6933999,-1.7651999,-4.1006,-0.2678,-9.1495,-3.5191,wlk
0.5732534,2.6958182,-0.30010936,-0.4437,-0.075399995,-2.0286,-0.3408,-9.123099,-3.5807,wlk
1.1420736,1.8743614,0.31196016,-1.0188999,0.6095,0.47219998,-0.4226,-9.111899,-3.6004999,wlk
0.969286,1.1767185,0.6862286,-3.1726,-1.0529,2.5121,-0.4754,-9.1361,-3.5319998,wlk
1.2986821,1.8246545,0.29958576,-3.9945998,-3.4366,0.867,-0.47709998,-9.1942,-3.3774998,wlk
1.4914187,2.2963996,-0.24268803,-2.3974,-3.1536999,-2.1324,-0.45619997,-9.271299,-3.1629999,wlk
1.2113109,1.7534624,-0.43202135,1.5687,0.5126,3.2635999,-0.4017,-9.2993,-3.0871,wlk
1.0560464,0.9459859,-0.272411,-1.9271,3.8862,10.9962,-0.2499,-9.2799,-3.1606998,wlk
1.1999139,0.983336,0.032986723,-6.4287,4.3676,2.6194,-0.0042999997,-9.3199,-3.0509,wlk
1.4243457,1.4469826,0.20006709,-1.3076999,0.61359996,3.3091,0.0427,-9.380799,-2.858,wlk
1.4772642,1.9050967,0.26413813,4.6500998,-3.7356,5.3427,-0.021399999,-9.4346,-2.6753,wlk
1.3842905,2.0176704,0.24926792,4.7019997,-4.5421,4.5575,0.0149,-9.500899,-2.4294,wlk
1.3208477,1.966445,0.22687535,1.1872,-1.2382,1.9642999,0.166,-9.5686,-2.1408,wlk
1.2641944,2.158187,0.24455553,-2.7616,0.46589997,1.1643,0.3197,-9.6154995,-1.8998,wlk
1.2057258,2.0929115,0.24448572,-3.5442,0.90389997,2.3955,0.40609998,-9.6514,-1.6894,wlk
1.149788,1.9467403,0.2512925,-3.0586,0.4613,2.7337,0.43039998,-9.6894,-1.4491,wlk
1.0135825,1.672898,0.26003662,-2.0472999,0.1178,2.1603,0.4292,-9.7283,-1.16,wlk
0.8255582,1.4944382,0.24083798,-1.1104,0.0053999997,1.6198,0.4141,-9.763,-0.82549995,wlk
0.68275535,1.3802762,0.26293385,-0.1797,-0.0734,1.185,0.3955,-9.7822,-0.5672,wlk
0.6296973,1.102158,0.3254341,0.6814,-0.0407,-0.1771,0.36789998,-9.7953,-0.2935,wlk
0.6473077,0.7106806,0.33714524,1.3057,0.122099996,-0.3288,0.32209998,-9.8013,-0.0045,wlk
0.7614348,0.5799729,0.30396655,1.9217999,0.1505,-0.6019,0.2748,-9.8003,0.21939999,wlk
0.85199994,0.7291287,0.30501375,2.3961,-0.003,-1.4153,0.21239999,-9.793799,0.4543,wlk
0.823778,0.7378903,0.39132026,2.2180998,-0.2304,-2.0616999,0.1354,-9.7821,0.67899996,wlk
0.7504567,0.6225764,0.4741885,1.2119,-0.0744,-2.3667,0.0727,-9.7713995,0.8271,wlk
0.6634869,0.7015002,0.455688,0.58199996,0.31559998,-2.2363,-0.0033999998,-9.759399,0.9614,wlk
0.6092944,1.1552683,0.29988247,1.0015,0.3612,-1.3382,-0.089499995,-9.7462,1.0832,wlk
0.568541,1.514143,0.1214051,1.4366,0.3357,-0.2562,-0.1715,-9.7305,1.2074,wlk
0.45144686,1.5178779,0.076026544,1.0007,0.15799999,0.31399998,-0.2456,-9.7097,1.3529999,wlk
0.17723818,1.4788873,0.19959585,0.1002,0.2888,0.113699995,-0.32569999,-9.683499,1.5141,wlk
-0.14543828,1.4639298,0.28661796,-0.6929,-0.3875,0.1266,-0.42499998,-9.6544,1.6679,wlk
-0.67128855,1.2455368,0.2531251,0.106599994,-0.9772,-0.1787,-0.5381,-9.6237,1.8066,wlk
-1.2681562,0.72064644,0.07517133,0.8383,-1.7723,0.1532,-0.652,-9.5935,1.9257,wlk
-2.0621939,0.12760103,-0.14318681,0.4904,-2.389,-0.918,-0.75519997,-9.5652,2.0262,wlk
-2.59698,-0.4060334,-0.2226342,-0.0316,-2.8263,-3.1501,-0.8411,-9.5398,2.1106,wlk
-3.0771027,-0.64770913,-0.24377014,1.0954,-3.1041,-4.3528,-0.9287,-9.517,2.1757,wlk
-3.2426996,-0.43966588,-0.27249825,2.7077,-3.2714,-5.3672,-1.021,-9.506499,2.1801,wlk
-2.901889,-0.0109083075,-0.43561673,3.9138,-4.2324,-5.5629,-1.1385,-9.506599,2.1207,wlk
-2.5076017,0.79957026,-0.6870663,4.7092,-4.8385997,-5.8271,-1.2377,-9.528,1.9633,wlk
-2.2186277,1.0455918,-0.8896816,4.348,-4.1075997,-4.3605,-1.2785,-9.572599,1.7028999,wlk
-2.1807714,0.66919416,-0.9433679,1.939,-1.9670999,-2.1067,-1.2524999,-9.6439,1.2633,wlk
-2.2594335,0.31349605,-0.74429566,-0.8825,0.3518,-1.1241,-1.2062,-9.6975,0.82009995,wlk
-2.3855858,-0.14742796,-0.53190655,-3.2902,0.056599997,1.1063,-1.1521,-9.7358,0.23709999,wlk
-2.3879595,-0.39423496,-0.42554617,-3.5044,-2.2779999,2.2611,-1.0948,-9.735,-0.4468,wlk
-2.251824,-0.66221285,-0.27913052,-3.4724998,-5.3268,1.6508,-1.0188,-9.706699,-0.9546,wlk
-2.062822,-0.95956457,-0.11287044,-3.105,-4.7957,1.0436,-0.8666,-9.6592,-1.4555,wlk
-1.7610896,-1.1248124,-0.06899287,-2.8518999,-3.1183999,1.9427999,-0.6392,-9.590899,-1.9427999,wlk
-1.3725444,-1.227176,-0.12719959,-2.4023,-1.7610999,2.0891,-0.4513,-9.516399,-2.3244998,wlk
-0.87493354,-1.2246627,-0.19524999,-0.8232,-0.7524,1.0972999,-0.29459998,-9.4072,-2.7546,wlk
-0.27897343,-0.98579687,-0.24569,0.3121,0.20639999,1.5324,-0.2042,-9.2677,-3.1994998,wlk
0.32368878,-0.6665412,-0.27687904,-0.45479998,0.6428,2.7054,-0.1531,-9.1059,-3.6369998,wlk
0.8965756,-0.40071014,-0.30332077,-0.65029997,1.4121,3.4039998,-0.1537,-8.9338,-4.0414,wlk
1.3847442,-0.29804987,-0.27349308,-0.5107,2.062,3.9812999,-0.2149,-8.76,-4.403,wlk
1.7608452,-0.3044029,-0.2692694,-0.67509997,2.5981998,4.7618,-0.3055,-8.5999,-4.7029,wlk
1.962745,-0.28403488,-0.21828833,-0.8922,3.3593,5.6249,-0.4021,-8.4685,-4.9286,wlk
1.8167831,-0.3154159,-0.07012733,-1.0386,4.0102,6.2749996,-0.5009,-8.3741,-5.0786,wlk
1.1373438,-0.40627775,0.06005678,-0.9066,4.6145,6.1115,-0.55439997,-8.3509,-5.1112,wlk
-0.08250172,-0.81681406,0.055920348,-0.72819996,4.7682,5.2163,-0.57589996,-8.3869,-5.0495996,wlk
-1.089644,-0.537701,-0.0074700094,-0.2785,4.3803,3.5307,-0.5647,-8.4794,-4.8938,wlk
-1.2165294,-0.71825534,-0.13487904,0.4191,3.4858,1.7019999,-0.54649997,-8.614699,-4.6538,wlk
-0.7378554,-0.99977696,-0.28923595,0.2232,1.5877,-1.3729,-0.5272,-8.776,-4.3443,wlk
0.0011519173,-0.8402015,-0.37852702,-0.3604,-1.4432,-4.5773997,-0.5123,-8.941899,-3.9935,wlk
0.7017271,-0.39868554,-0.29728192,-0.4763,-4.569,-8.3993,-0.5239,-9.0817995,-3.6627998,wlk
1.1676601,0.050754175,0.032410763,-1.5543,-7.1562,-9.9253,-0.5639,-9.162,-3.4508998,wlk
0.81632537,-0.20406389,0.47787115,-1.4090999,-6.6134,-6.2816,-0.6306,-9.1556,-3.4563,wlk
-0.34388223,0.30161035,0.264557,0.1674,-2.2384999,-3.5205998,-0.66749996,-9.0782995,-3.648,wlk
0.7139269,2.0946045,-0.043161992,1.0796,2.3693,-1.0256,-0.6971,-8.9888,-3.8579998,wlk
1.5727162,1.5223634,0.063268185,0.38329998,4.6049,1.5361999,-0.7265,-8.9296,-3.9878,wlk
1.5166038,0.76771796,0.31984904,-1.8237,2.8741999,3.8198,-0.7259,-8.9347,-3.9766998,wlk
1.5889652,1.4331073,0.11046189,-6.2489,-3.6762998,2.1485999,-0.7039,-8.9938,-3.8451998,wlk
1.8579379,1.6265596,-0.36404076,-6.0016,-7.6689997,-2.4745998,-0.706,-9.0807,-3.6348,wlk
1.6698612,0.9613797,-0.3825587,-0.7417,-5.0586,0.443,-0.8077,-9.1315,-3.4831,wlk
1.2207706,0.17921041,-0.15145968,-0.4008,3.4150999,12.710199,-0.8348,-9.103,-3.5507,wlk
1.2149411,0.14027211,0.123447135,-3.8458998,5.2262,4.9031,-0.66499996,-9.1586,-3.4419,wlk
1.259447,0.37512362,0.26965338,0.40809998,1.9361,3.0022,-0.5846,-9.2519,-3.1984,wlk
1.2257797,0.6379702,0.2541374,6.3438,-2.7407,6.6324,-0.59709996,-9.341,-2.9255,wlk
1.1956029,0.85058624,0.13213888,5.0436997,-3.9299,7.1457,-0.5327,-9.4365,-2.615,wlk
1.2436867,1.026079,0.03132866,0.4868,-1.6280999,1.3406999,-0.3985,-9.5219,-2.3116,wlk
1.2754343,1.1960741,0.055571284,-2.316,0.4341,-0.4646,-0.2728,-9.6033,-1.9672999,wlk
1.1876966,0.96380574,0.14978416,-3.172,0.60319996,2.149,-0.24069999,-9.6449995,-1.7566999,wlk
1.0951941,0.87261224,0.24279276,-2.2014,0.3581,1.8853999,-0.26,-9.684199,-1.5225999,wlk
1.0125353,0.77998763,0.29817206,-0.74729997,0.3624,1.9275,-0.3019,-9.717999,-1.2803,wlk
0.89147925,0.62125,0.35515705,0.1797,0.4678,1.8204999,-0.3366,-9.7449,-1.0458,wlk
0.8524188,0.47938958,0.36334264,0.46429998,0.3322,1.8088,-0.3466,-9.7662,-0.8183,wlk
0.88610363,0.416645,0.2850297,0.2987,0.0959,0.4703,-0.33789998,-9.7848,-0.5585,wlk
0.93277377,0.44895104,0.22755602,0.5639,0.1459,0.1011,-0.3384,-9.7956,-0.31689999,wlk
0.96324724,0.5517335,0.2239781,0.9593,0.0907,-0.0532,-0.3611,-9.7993,-0.1135,wlk
0.9411339,0.57965875,0.2629164,0.7714,0.0989,-0.6435,-0.4086,-9.7976,0.094399996,wlk
0.84667665,0.55452603,0.3260973,0.4504,0.102199994,-0.8939,-0.47,-9.7912,0.2859,wlk
0.72460836,0.50696576,0.3946713,0.80899996,0.0429,-0.9149,-0.5442,-9.781,0.454,wlk
0.5309117,0.467085,0.3896622,1.3363,-0.2155,-0.9583,-0.62049997,-9.7676,0.61509997,wlk
0.43357468,0.55833083,0.3209137,1.2997999,0.141,-0.7238,-0.682,-9.7515,0.7826,wlk
0.55555576,0.6071302,0.15013322,0.8225,0.2882,-0.3304,-0.7342,-9.731999,0.958,wlk
0.65723866,0.7858694,0.037681658,0.2696,-0.0393,-0.6073,-0.7894,-9.7084,1.1369,wlk
0.5107706,1.0610904,0.15966272,0.0112,-0.2922,-0.9666,-0.85459995,-9.6811,1.3097999,wlk
0.22856832,1.1519523,0.4242372,0.8154,-0.0665,-1.0321,-0.9331,-9.6518,1.4635999,wlk
-0.10707595,0.9430712,0.5440191,1.9662,-0.4298,0.1326,-1.0246999,-9.6219,1.5933,wlk
-0.5776167,0.6273062,0.44429103,2.5174,-1.299,1.2172999,-1.115,-9.5961,1.6853,wlk
-1.133382,0.064664446,0.106395274,1.7156,-2.2824,0.24489999,-1.1958,-9.5738,1.7555,wlk
-1.8256143,-0.49624947,-0.31049407,0.010799999,-2.61,-1.592,-1.2464,-9.550099,1.8469,wlk
-2.4241924,-0.575278,-0.4364894,-0.8346,-2.6457999,-3.1585999,-1.2836,-9.5241995,1.9524,wlk
-2.9283483,-0.40844196,-0.3917566,0.2676,-2.6506999,-3.8161,-1.3562,-9.4997,2.0214999,wlk
-3.135484,-0.15440927,-0.41371286,2.6994998,-3.0839,-4.0523,-1.4834,-9.4783,2.0321999,wlk
-2.8855178,0.024853488,-0.609085,4.7429,-4.1261997,-4.0320997,-1.6243999,-9.4657,1.9825,wlk
-2.6750138,0.3750538,-0.781349,5.4101996,-4.7269998,-4.3429,-1.7327,-9.473,1.852,wlk
-2.4910736,0.7440339,-0.8218232,3.4812,-3.4947999,-4.0274,-1.7551999,-9.5088,1.6345999,wlk
-2.3181288,0.48661524,-0.8657008,-0.1818,-1.067,-2.1171,-1.6814,-9.5731,1.3032,wlk
-2.3783252,0.14856243,-0.70263463,-2.661,0.90199995,-1.8465999,-1.5852,-9.6397,0.85609996,wlk
-2.3658288,-0.0012217305,-0.5156924,-2.5825,0.4114,1.3414999,-1.4969,-9.688499,0.2471,wlk
-2.331882,-0.23364723,-0.42453387,-2.5075,-2.217,2.7085,-1.4248999,-9.698,-0.296,wlk
-2.1927793,-0.47469464,-0.37014943,-3.8516,-5.0088997,1.3661,-1.3066,-9.681399,-0.85609996,wlk
-1.9930438,-0.6778161,-0.25120524,-3.9031,-5.1379,1.1765,-1.1473,-9.6406,-1.3823999,wlk
-1.7055881,-0.7667755,-0.19200367,-3.1536,-3.5149999,1.6613,-0.9651,-9.576799,-1.877,wlk
-1.2748582,-0.6612878,-0.19367918,-2.6811,-2.0084999,2.7157,-0.76089996,-9.484799,-2.3725,wlk
-0.7671944,-0.6995105,-0.2061932,-1.248,-0.5017,2.3272998,-0.63479996,-9.3833,-2.7784,wlk
-0.17114699,-0.6006376,-0.18837339,0.20539999,0.1174,1.9052,-0.53889996,-9.247399,-3.2193,wlk
0.45636868,-0.38269836,-0.15543902,-0.3857,0.52059996,3.0857,-0.4772,-9.091599,-3.6446998,wlk
1.0373365,-0.19336502,-0.14411184,-1.2102,1.1695,3.4471,-0.447,-8.9265995,-4.0355,wlk
1.5310552,-0.121876344,-0.13123131,-1.2171,1.8472999,4.6271996,-0.45979998,-8.761,-4.382,wlk
1.8372557,-0.12765338,-0.1640784,-1.0632,2.7930999,5.0927,-0.496,-8.608399,-4.671,wlk
1.8573445,-0.19418533,-0.27403414,-1.2078999,3.6085,5.6184998,-0.52779996,-8.4824,-4.8928,wlk
1.6867385,-0.22251202,-0.25635397,-1.0378,4.1857,6.4111,-0.5606,-8.4123,-5.0087,wlk
1.1000985,-0.113149695,-0.18476056,-0.6756,4.6316,6.2367997,-0.5894,-8.3973,-5.0306,wlk
-0.2202431,-0.24849997,-0.13782865,-0.3595,4.4632,5.2139997,-0.6015,-8.4447,-4.9491997,wlk
-1.3825277,-0.18645352,-0.1685639,-0.2179,3.6439,3.3585,-0.5959,-8.5472,-4.7706,wlk
-1.275347,-0.75330156,-0.2904926,0.3592,2.8753998,1.0337,-0.5847,-8.6908,-4.5053,wlk
-0.59370863,-0.80344486,-0.37938222,0.5162,1.248,-1.6567,-0.5653,-8.8678,-4.1488,wlk
0.12020083,-0.6843785,-0.30209905,0.1528,-1.6359999,-3.8597999,-0.53529996,-9.0041,-3.8481,wlk
0.7667406,-0.60042816,-0.16554448,0.5053,-4.2055,-7.8455,-0.5053,-9.1314,-3.5398998,wlk
1.3111612,-0.4550946,0.2207318,-0.109,-7.2367997,-11.922,-0.4793,-9.2088995,-3.337,wlk
1.1941193,-0.5015378,0.6437647,-0.6275,-8.2113,-7.7846,-0.4707,-9.1954,-3.3752,wlk
-0.111927964,0.17100736,0.18221237,0.247,-2.3932,-2.6595,-0.45299998,-9.1001,-3.6265,wlk
0.2926219,1.9269831,-0.4135732,0.447,3.6627998,0.21229999,-0.45679998,-9.0074,-3.8506,wlk
1.3893868,2.3253894,-0.47804567,-0.99009997,5.8852,1.5572,-0.4513,-8.964499,-3.9499998,wlk
1.3489825,1.103851,0.1354201,-2.9713,3.2594,2.7161,-0.4511,-8.9767,-3.9222999,wlk
1.355283,0.8844805,0.36826447,-6.5931,-3.0149999,2.3665,-0.4676,-9.0373,-3.7786999,wlk
1.6325287,1.5593469,0.09937905,-4.6073,-7.8051,-1.3378999,-0.54109997,-9.130899,-3.5358999,wlk
1.6221265,1.507057,-0.08230973,1.3506,-6.8683,-4.0834,-0.6935,-9.2046995,-3.3107998,wlk
1.336643,0.8862956,-0.13208652,1.7651,1.8201,12.6991,-0.7158,-9.1947,-3.3337998,wlk
1.2193743,0.5854707,-0.06689847,-4.1176,5.9656997,7.0266,-0.49139997,-9.2216,-3.3000998,wlk
1.2987694,0.6787411,0.027314402,-4.5894,3.9492998,1.9614999,-0.255,-9.313499,-3.0598998,wlk
1.3379694,0.73712236,0.07012733,0.96449995,-0.91239995,4.593,-0.2192,-9.3845,-2.8376,wlk
1.2826948,1.1132408,0.13843952,3.7809,-3.8609998,7.4013996,-0.24069999,-9.4563,-2.5863,wlk
1.2474741,1.3915336,0.19488347,1.8946999,-2.6957998,3.429,-0.1786,-9.5428,-2.2522,wlk
1.2703379,1.6488998,0.19842649,-0.1184,-0.4078,0.5938,-0.107099995,-9.6047,-1.9765999,wlk
1.2074362,1.6626356,0.20769417,-1.6083,0.25959998,2.1814,-0.049,-9.6544,-1.7205,wlk
1.0058157,1.4988887,0.19830431,-2.2870998,0.4262,2.348,-0.0173,-9.6935,-1.485,wlk
0.82822853,1.3754765,0.18659315,-2.0451999,0.5498,1.6643,-0.0042999997,-9.7288,-1.2329,wlk
0.73455673,1.0762748,0.1993166,-1.783,0.7387,1.5540999,-0.0016999999,-9.7609,-0.946,wlk
0.7853807,0.71635294,0.22895229,-1.128,0.31669998,1.2599,-0.0094,-9.7801,-0.7206,wlk
0.8689471,0.49762827,0.22104596,-0.2827,-0.021399999,1.1536,-0.031,-9.7949,-0.47689998,wlk
0.92861986,0.5802522,0.19594811,0.833,-0.071499996,-0.2805,-0.0583,-9.8036995,-0.2294,wlk
0.9667204,0.664761,0.20015436,1.6056,-0.1083,-0.9364,-0.0954,-9.8061,0.0047999998,wlk
0.9649227,0.5388006,0.31714377,1.5985999,0.1245,-1.3752999,-0.1374,-9.803599,0.19849999,wlk
0.90833914,0.47802824,0.4665265,0.98579997,0.3252,-1.2685,-0.18169999,-9.7984,0.3565,wlk
0.82213736,0.6118601,0.45207518,1.0587,0.0819,-0.9903,-0.2349,-9.7905,0.5098,wlk
0.67233574,0.70581114,0.3463955,1.6753,-0.496,-0.8605,-0.2828,-9.7813,0.6448,wlk
0.48994884,0.7883303,0.23851669,1.8140999,-0.0001,-0.6645,-0.3333,-9.7673,0.81159997,wlk
0.36007887,0.8756142,0.062290803,0.8037,0.70739996,-0.82189995,-0.3821,-9.7491,0.98859996,wlk
0.38667768,1.062923,-0.094300136,-0.5255,0.5672,-0.7204,-0.4355,-9.7266,1.1715,wlk
0.3130248,1.3567492,-0.11369075,-0.5581,-0.225,-0.6967,-0.5107,-9.6993,1.3537999,wlk
0.048799407,1.5548266,0.043336526,0.63449997,-0.58,-0.5829,-0.6149,-9.6679,1.5243,wlk
-0.43142793,1.3659645,0.15093607,1.8692,-0.5437,-0.6059,-0.72179997,-9.6355,1.6747999,wlk
-1.0633243,0.8834159,0.0368439,2.2644,-1.0921,0.0502,-0.81299996,-9.6069,1.7932999,wlk
-1.799417,0.28867745,-0.2237163,1.9370999,-1.5259999,-0.0106,-0.8878,-9.5849,1.8738999,wlk
-2.3917818,-0.13896312,-0.33026865,0.3839,-2.2468998,-1.4169999,-0.93299997,-9.57,1.9268999,wlk
-2.919901,-0.486144,-0.2123193,-0.7987,-2.7309,-2.8437,-0.95659995,-9.5567,1.9806999,wlk
-3.2708693,-0.34658748,-0.12004375,-0.19739999,-3.31,-4.0539,-0.9891,-9.5464,2.0140998,wlk
-3.181962,-0.008796459,-0.14863224,2.0404,-4.2149997,-4.9433,-1.0597,-9.5436,1.9914999,wlk
-2.7949703,0.5300914,-0.36758378,4.6229,-4.9568,-5.6447,-1.1415,-9.557,1.879,wlk
-2.4133365,0.89018774,-0.6188414,5.0534,-4.4591,-5.1067,-1.1797999,-9.593699,1.6546999,wlk
-2.2871492,0.556219,-0.767334,1.8808,-3.018,-3.1550999,-1.1452999,-9.6521,1.3016,wlk
-2.2109308,0.7029663,-0.6789156,-1.7653999,-0.80189997,-2.3516,-1.0784,-9.7107,0.84139997,wlk
-2.1407511,0.3079808,-0.4738569,-4.1015,0.5514,0.0079,-1.0273,-9.75,0.22729999,wlk
-2.2335327,-0.08564331,-0.37070793,-4.0534997,-1.0188,1.7722,-1.0066,-9.748799,-0.3405,wlk
-2.131047,-0.0070162234,-0.20624556,-2.9838998,-4.1463,2.5779,-0.97789997,-9.7104,-0.9598,wlk
-1.8613238,-0.2207667,-0.07033677,-2.2934,-5.3363,1.9817,-0.8937,-9.6482,-1.5109999,wlk
-1.4946826,-0.34222415,0.016283922,-2.1395,-4.2535,1.6561999,-0.7436,-9.5738,-1.9897,wlk
-1.0887538,-0.34562755,-0.029373892,-2.7124,-2.2656,3.4529,-0.5728,-9.482699,-2.4329998,wlk
-0.63886034,-0.51242864,-0.08562585,-2.2667,-0.69159997,2.3595998,-0.3908,-9.3602,-2.8989,wlk
-0.13135348,-0.4976108,-0.06897541,-1.4216,1.0166,2.2296999,-0.2945,-9.2444,-3.2594,wlk
0.44411647,-0.28468066,-0.03185226,-1.7875999,1.5109999,2.8548,-0.23249999,-9.091499,-3.6687,wlk
1.0077356,0.01293289,-0.024085544,-1.5495,1.8277999,3.6606,-0.196,-8.9278,-4.0527997,wlk
1.4461973,0.20006709,0.06080727,-0.91529995,1.7608999,4.2016997,-0.2026,-8.7628,-4.3978,wlk
1.7182243,0.1918466,0.067142814,-0.57559997,2.0009,4.473,-0.2382,-8.620399,-4.6691,wlk
1.7755758,-0.08225737,-0.04017748,-1.0310999,2.7217999,5.0122,-0.2633,-8.5273,-4.8357,wlk
1.671624,-0.3690673,-0.12550662,-1.6721,3.513,6.0299997,-0.299,-8.4653,-4.9414997,wlk
1.2976698,-0.058328904,-0.09807005,-1.5363,4.2653,6.0688,-0.3367,-8.4527,-4.9606,wlk
0.44842744,-0.09368927,-0.066881016,-1.0919,4.417,5.2757,-0.3594,-8.4966,-4.8834,wlk
-0.7098952,0.017907077,-0.013613568,-1.0291,3.7289999,3.4485998,-0.3536,-8.6029,-4.694,wlk
-1.1992681,-0.22809708,-0.017889624,-0.32009998,3.0633,0.90999997,-0.3466,-8.7218,-4.4698997,wlk
-0.7902851,-0.7423758,-0.04897394,0.19479999,1.6128,-1.9600999,-0.3419,-8.8696995,-4.1689,wlk
-0.063093655,-0.3926991,-0.09847148,0.6749,-0.84319997,-3.6511,-0.3414,-9.0124,-3.8509,wlk
0.51445323,-0.16029103,-0.026319565,1.1796,-3.1704,-5.1534,-0.346,-9.1369,-3.5449998,wlk
0.9198409,-0.011763519,0.1513375,-0.0405,-4.8950996,-8.5792,-0.3321,-9.226399,-3.3063998,wlk
1.1851659,0.25239205,0.6374291,-1.2529,-6.3756,-8.6821995,-0.3259,-9.2561,-3.2229998,wlk
0.7018667,0.47750464,0.74563956,-2.041,-4.7257,-4.8833,-0.3223,-9.209499,-3.3542,wlk
0.084089965,0.9429316,0.31681216,-0.7536,0.3888,-0.7323,-0.3349,-9.1265,-3.5727,wlk
0.99869484,2.2832572,-0.37313393,-0.2866,3.8716998,1.2595999,-0.38009998,-9.0693,-3.7112,wlk
1.4654307,2.1688683,-0.23975588,-2.3051999,3.4559,1.5425999,-0.3915,-9.0653,-3.7196999,wlk
1.1404505,1.4000682,0.25912905,-6.0246997,0.16939999,2.4482,-0.39859998,-9.1033,-3.625,wlk
1.2651019,1.4613467,0.20954423,-7.5554,-3.5519998,1.3386999,-0.4271,-9.1671,-3.4569,wlk
1.7307383,1.7107369,-0.20416862,-4.2481,-5.0576,-3.2213,-0.5276,-9.240399,-3.2412,wlk
1.597081,1.3774836,-0.21085322,2.0966,-3.3741,2.2539,-0.6354,-9.276299,-3.1169,wlk
1.2396201,0.72225213,-0.059463367,3.2245,2.4521,11.9393,-0.6356,-9.2775,-3.1132998,wlk
1.2551535,0.6599788,0.055414204,-2.8183,4.2328,4.1285,-0.4276,-9.342,-2.9517,wlk
1.399405,0.9976651,0.08731882,-1.8383,1.7673999,1.4461,-0.26029998,-9.4264,-2.6915998,wlk
1.4104878,1.3819517,0.074787356,2.6787,-1.3227,5.2581997,-0.23689999,-9.484099,-2.4829,wlk
1.4000682,1.60867,0.084247045,3.0418,-2.7935998,5.5339,-0.2077,-9.543,-2.2487,wlk
1.3928425,1.8453017,0.08405506,0.3522,-1.7205,1.3045,-0.0972,-9.6158,-1.9223,wlk
1.27142,1.9242604,0.1055226,-1.1589999,-0.3399,1.2136999,-0.0079,-9.6726,-1.6157,wlk
1.1686375,1.8912039,0.16025613,-1.8392999,0.36389998,2.8267999,0.0251,-9.7095995,-1.3754,wlk
0.9987472,1.8977314,0.1277581,-2.0117,0.6602,2.092,0.0308,-9.741099,-1.1309,wlk
0.77047557,1.6277813,0.09070476,-2.0439,0.5409,1.6711999,0.0335,-9.769,-0.8573,wlk
0.62329197,1.3842032,0.118088976,-1.7450999,0.504,1.9255999,0.038799997,-9.790899,-0.5527,wlk
0.61283743,1.1017216,0.14301229,-1.3601999,0.35799998,1.658,0.0363,-9.8018,-0.3047,wlk
0.6894225,0.87742937,0.1336573,-0.39859998,0.0,0.1383,0.025899999,-9.8064995,-0.030399999,wlk
0.8230449,0.796481,0.13622294,1.0212,-0.20889999,0.1969,-0.0013,-9.803599,0.2443,wlk
0.8539198,0.7935663,0.17659241,2.1743999,-0.4037,-1.0216,-0.0464,-9.7951,0.47239998,wlk
0.79751074,0.68593186,0.30295426,1.8532,-0.5708,-1.8719,-0.088,-9.7849,0.6461,wlk
0.73260194,0.5381374,0.43172464,1.2712,-0.1911,-1.8571,-0.1337,-9.7724,0.8078,wlk
0.665686,0.5294282,0.46520007,1.2939,0.0832,-1.7176,-0.1759,-9.7624,0.91349995,wlk
0.5704259,0.6521423,0.3929085,1.5491999,-0.037,-1.2638999,-0.2253,-9.7499,1.0286,wlk
0.48942524,0.84194684,0.28206265,1.5062,0.2119,-0.8937,-0.2706,-9.7342,1.1585,wlk
0.49314278,0.90949106,0.072221726,1.0523,0.6124,-0.7058,-0.3168,-9.712999,1.3138,wlk
0.44704863,1.1375009,0.02708751,-0.038599998,0.33249998,-0.8562,-0.3732,-9.688,1.474,wlk
0.25703463,1.3678495,0.13020156,-0.2154,-0.24669999,-0.9411,-0.4612,-9.6579,1.6373,wlk
-0.057700586,1.3564001,0.27794367,0.61149997,-0.4691,-0.5043,-0.55259997,-9.631599,1.7594999,wlk
-0.5818404,1.0780898,0.27387705,1.446,-0.9697,-0.1551,-0.66139996,-9.6017,1.8810999,wlk
-1.1575372,0.6103242,-0.0009773844,1.6739999,-1.5171,-0.0394,-0.76199996,-9.5741,1.9811,wlk
-1.9848931,0.10035643,-0.30855677,0.81079996,-1.8551999,-1.3158,-0.84999996,-9.5498,2.0611,wlk
-2.5390527,-0.4373446,-0.41582468,-0.2649,-2.4166,-2.5607998,-0.90199995,-9.5278,2.1392,wlk
-3.0778706,-0.55758035,-0.32105333,-0.24399999,-2.6052,-3.6901999,-0.96209997,-9.505899,2.2093,wlk
-3.2529097,-0.40067524,-0.27392942,1.1764,-2.7649,-4.6214,-1.0390999,-9.4932995,2.2286,wlk
-2.9477563,-0.06379178,-0.41793653,3.3386998,-4.0139,-5.0906,-1.1517999,-9.4897995,2.1878,wlk
-2.5166776,0.51853734,-0.6926339,5.0839,-5.0059,-5.7581997,-1.2494999,-9.507899,2.0513,wlk
-2.3308873,0.5624673,-0.91566956,4.617,-4.4511,-4.4923997,-1.2729,-9.5527,1.8152,wlk
-2.3374147,0.27164304,-0.9950471,1.1721,-2.4113,-2.7271,-1.2113999,-9.6312,1.3934,wlk
-2.332074,0.19107865,-0.7925016,-1.9591999,0.3186,-1.8728,-1.1298,-9.6938,0.9608,wlk
-2.4428675,-0.033213615,-0.5667084,-3.2254999,0.29819998,0.6748,-1.0598999,-9.742,0.37449998,wlk
-2.4015207,-0.26783824,-0.5464102,-2.4118,-2.7431998,2.4031,-1.0009,-9.750299,-0.3143,wlk
-2.2610042,-0.3182957,-0.41146138,-2.504,-6.1103997,1.8402,-0.92819995,-9.7272,-0.83019996,wlk
-1.9777024,-0.3551745,-0.19765854,-2.2378,-5.5938997,0.98459995,-0.78249997,-9.6847,-1.3277999,wlk
-1.6256521,-0.6459464,-0.1390853,-2.7558,-3.5823998,2.8021998,-0.5685,-9.6173,-1.8312999,wlk
-1.2607037,-0.8037416,-0.16805775,-3.3395,-2.0904,2.737,-0.387,-9.5402,-2.2368999,wlk
-0.71781904,-0.7925715,-0.11576769,-2.3322,-0.50369996,1.5725,-0.2272,-9.4303,-2.6806998,wlk
-0.07147123,-0.6150715,-0.039095376,-1.0733,0.3759,1.9318999,-0.122999996,-9.2901,-3.1381,wlk
0.5920506,-0.27321383,0.07672467,-1.2442,0.86259997,3.0605,-0.0404,-9.1296,-3.5802999,wlk
1.1842932,0.059445914,0.1664695,-1.1082,2.1722999,3.754,0.0099,-8.9585,-3.9894,wlk
1.6293521,0.12784536,0.23382176,-1.2412,2.6055999,4.5074,0.0154,-8.7936,-4.3406997,wlk
1.880854,-0.006440265,0.20422098,-1.4625,2.9305,5.1245,-0.018199999,-8.6477995,-4.6243997,wlk
1.9753462,-0.3095865,0.122382484,-1.6506,3.684,5.772,-0.0654,-8.5285,-4.8403,wlk
1.920089,-0.53030086,0.15191346,-1.671,4.4964,6.3631997,-0.1235,-8.4583,-4.9609,wlk
1.2930098,-0.2892534,0.1532399,-1.6601,5.0085,6.0313,-0.18339999,-8.4506,-4.9722,wlk
-0.12917182,-0.19310322,0.11220722,-1.3398,4.8645,4.8220997,-0.21939999,-8.5028,-4.8809,wlk
-1.37511,-0.14568263,-0.06846926,-0.7187,3.9668,2.4819,-0.24219999,-8.6152,-4.6784997,wlk
-1.2145572,-0.9809274,-0.15746361,0.1831,2.9464998,0.2577,-0.2713,-8.7618,-4.3961,wlk
-0.28106782,-0.7417649,-0.1545489,0.7787,0.87829995,-2.4284,-0.308,-8.9197,-4.0636,wlk
0.40167007,-0.32683036,-0.19530234,1.374,-2.3423998,-3.6193,-0.3541,-9.0724,-3.7061,wlk
0.9059132,-0.29682815,-0.05126032,1.6647999,-4.7283998,-7.2497997,-0.4193,-9.206699,-3.3511,wlk
1.3802936,-0.37458256,0.4631231,0.32909998,-8.0492,-11.571,-0.4664,-9.288899,-3.1094,wlk
1.0403384,-0.15086626,0.55892426,-0.1184,-8.176,-8.7344,-0.49929997,-9.279699,-3.1316,wlk
0.017051866,0.4760909,0.0077841682,0.074499995,-1.9397,-2.9213998,-0.4962,-9.1908,-3.3841999,wlk
0.593761,2.0536416,-0.4993038,0.5359,4.3121,1.8312,-0.5359,-9.1076,-3.5964,wlk
1.1401188,1.7464463,-0.29923669,-0.7427,5.99,3.2178,-0.5615,-9.0889,-3.6395,wlk
1.1490724,0.6473426,0.15779522,-5.864,1.4217,3.9943,-0.5495,-9.12,-3.5628,wlk
1.2925036,0.7047989,0.107948616,-8.3141,-4.3594,2.4424999,-0.56079996,-9.183499,-3.3937,wlk
1.5562054,1.3266422,-0.246999,-3.3107,-5.8931,-2.8179998,-0.67069995,-9.2678995,-3.1345,wlk
1.4752918,1.1894593,-0.3575656,3.1276,-3.8179,0.2127,-0.7838,-9.3229,-2.939,wlk
1.1686375,0.61672956,-0.2818183,1.3162999,2.2433999,9.807799,-0.75729996,-9.3238,-2.9431999,wlk
1.1696498,0.6523168,-0.15695746,-3.9171,4.7556,5.3205,-0.5448,-9.364699,-2.859,wlk
1.3032548,1.0654712,-0.059096847,-2.383,2.9875,2.6611,-0.3922,-9.4305,-2.6611,wlk
1.3238846,1.4498101,0.017156586,1.9482,-0.8678,4.7827997,-0.389,-9.4879,-2.4487998,wlk
1.3122083,1.7200394,0.09016371,3.1411998,-2.9406998,5.7537,-0.3757,-9.552899,-2.1841,wlk
1.2961688,1.8468027,0.103620194,0.4998,-2.2639,2.6296,-0.2841,-9.611899,-1.9236,wlk
1.195917,1.9636525,0.11787954,-1.6021999,-0.70919997,1.3895999,-0.1727,-9.6662,-1.6445999,wlk
1.046098,1.7953155,0.1497667,-2.4994,0.3374,2.4889,-0.0993,-9.7027,-1.42,wlk
0.83966047,1.7519265,0.12959069,-2.645,0.6624,2.0075998,-0.051799998,-9.7335,-1.1937,wlk
0.64290947,1.6186358,0.043388885,-2.3262,0.602,1.8326999,-0.0175,-9.7614,-0.9403,wlk
0.5814739,1.4619576,0.030822514,-1.5716,0.4567,1.6820999,0.0025,-9.7829,-0.6818,wlk
0.64085,1.262833,0.044017203,-0.44509998,0.1476,1.6506,0.0037999998,-9.7973995,-0.42479998,wlk
0.6815511,1.1770675,0.040893063,0.2898,-0.1682,0.40609998,-0.0053999997,-9.8050995,-0.1707,wlk
0.73804736,1.1827748,0.027209682,1.0071,-0.31399998,-0.64169997,-0.0265,-9.806399,0.063099995,wlk
0.77721256,1.0728015,0.06660176,1.7386999,-0.3764,-1.4139999,-0.0618,-9.8028,0.26659998,wlk
0.7697775,0.8688249,0.16713274,1.4527,-0.5001,-1.7915,-0.0994,-9.7967,0.4283,wlk
0.735761,0.73516756,0.2630211,0.6435,-0.3987,-1.1978999,-0.123799995,-9.790299,0.5506,wlk
0.636731,0.7997971,0.29145253,1.1478,-0.0233,-0.8566,-0.1476,-9.783199,0.6604,wlk
0.43903756,0.98796105,0.22179644,1.8808,0.3202,-0.713,-0.1744,-9.7738,0.7816,wlk
0.29188886,1.1483394,0.0789936,1.8332,0.69949996,-0.6289,-0.20529999,-9.7609,0.9231,wlk
0.27792624,1.3545326,-0.06340781,0.78029996,0.5294,-0.695,-0.2311,-9.7477,1.048,wlk
0.35175365,1.5726464,-0.16283922,-0.3594,0.0312,-0.94879997,-0.2681,-9.729899,1.194,wlk
0.27078784,1.6906307,-0.09686577,-0.3441,-0.35209998,-1.0737,-0.32259998,-9.709499,1.3385,wlk
-0.028902652,1.625076,0.11227703,0.8455,-0.2962,-1.0246999,-0.3944,-9.6869,1.4758999,wlk
-0.61398935,1.5058352,0.16102408,1.7207999,-0.31829998,-0.58199996,-0.47529998,-9.6648,1.5920999,wlk
-1.2358327,1.2571257,-0.064647,1.4918,-1.0016999,-0.1662,-0.55039996,-9.6482,1.6667,wlk
-1.9265991,1.0216634,-0.26230553,0.82989997,-1.7283,-0.29749998,-0.6044,-9.6375,1.7096,wlk
-2.4954543,0.5187293,-0.22324507,-0.24,-1.689,-1.7597,-0.6425,-9.6278,1.7499,wlk
-2.9745471,0.22153464,-0.09416051,-1.0222,-1.6884999,-3.8713,-0.6645,-9.6185,1.7923,wlk
-3.075654,0.46553168,0.048223447,-0.0383,-2.9129,-5.0278997,-0.7069,-9.61,1.8211,wlk
-2.5552318,0.91041607,0.015603243,2.4231,-4.7475,-4.9262,-0.7952,-9.6094,1.7881,wlk
-2.0977635,1.3115801,-0.26546457,3.498,-5.3879,-5.1110997,-0.8698,-9.625999,1.6590999,wlk
-1.8720576,1.0921572,-0.6126804,2.455,-4.0741,-3.8109,-0.8958,-9.665,1.3984,wlk
-1.7716314,0.9763895,-0.7308566,-0.99679995,-1.7633,-3.6448,-0.8664,-9.7202,0.9676,wlk
-1.740739,0.7714704,-0.63727206,-4.1279,0.9507,-2.4736,-0.83419997,-9.7571,0.5221,wlk
-1.8935426,0.29401818,-0.42678535,-5.0376997,1.3778,0.1901,-0.8168,-9.7723,-0.062699996,wlk
-1.9557811,-0.023143066,-0.3516315,-2.6876,-1.1603,2.1243,-0.8231,-9.744599,-0.7317,wlk
-1.7934654,-0.026459191,-0.17142624,-0.5726,-4.6077,2.1045,-0.81,-9.7001,-1.1924,wlk
-1.5633438,-0.08724901,-0.02953097,-0.70989996,-5.2412996,1.0203,-0.72169995,-9.6451,-1.6185,wlk
-1.3882698,-0.31133184,0.015812684,-1.7890999,-3.0749,2.0712,-0.56439996,-9.5854,-1.9927,wlk
-1.1636808,-0.5725204,0.06138323,-2.6183,-1.2325,1.7815,-0.38239998,-9.5155,-2.3404999,wlk
-0.81674427,-0.7757116,0.13086478,-2.6994,-0.3353,0.68439996,-0.22289999,-9.432,-2.6750998,wlk
-0.337983,-0.76806706,0.23272221,-1.7861999,0.33269998,1.384,-0.126,-9.325399,-3.0314999,wlk
0.18332939,-0.621058,0.2917667,-1.6733999,0.5509,2.0014,-0.062299997,-9.200399,-3.3939,wlk
0.688672,-0.4245688,0.32635912,-1.2811999,1.0314,2.5056999,-0.0328,-9.0728,-3.7217999,wlk
1.0733426,-0.20326105,0.4137652,-1.1327,1.3910999,2.7386,-0.034199998,-8.952,-4.0036,wlk
1.3648474,0.030281462,0.44570473,-0.8002,1.9041,3.3286,-0.062699996,-8.8373995,-4.2504,wlk
1.5461698,0.18327703,0.39420006,-0.9946,2.695,4.1303,-0.12329999,-8.7359,-4.454,wlk
1.4566343,0.1680403,0.32541662,-0.97029996,3.6306999,4.7406,-0.2162,-8.6615,-4.5934997,wlk
0.99249893,-0.0813847,0.3333928,-0.8983,4.3238,4.6969,-0.3274,-8.629,-4.6479,wlk
0.2112721,-0.27276006,0.35679767,-0.8885,4.466,4.033,-0.4353,-8.6437,-4.6116,wlk
-0.5479112,0.050562188,0.2532822,-0.6853,3.9076998,2.7424998,-0.5306,-8.7031,-4.4881,wlk
-0.7999891,0.087371185,0.04977679,0.0128,3.4185998,1.1795,-0.62079996,-8.7926,-4.298,wlk
-0.6167819,-0.4527035,-0.2043606,0.197,2.0655,-0.9345,-0.6972,-8.9008,-4.0569997,wlk
-0.15227997,-0.7727096,-0.3715457,-0.1037,-0.181,-4.0411,-0.7592,-9.0273,-3.7551,wlk
0.40303144,-0.7334397,-0.39299577,-0.9245,-3.0225,-6.3654,-0.8013,-9.1181,-3.5196,wlk
1.0526954,-0.23434536,-0.36672857,-0.3186,-4.6958,-7.2837996,-0.86789995,-9.1805,-3.3367,wlk
1.6016712,0.39400807,-0.09847148,0.5299,-4.9139,-6.5134997,-0.95159996,-9.188,-3.293,wlk
1.4943683,0.6440963,0.15102334,0.8671,-3.0628,-4.8722997,-0.9946,-9.1463995,-3.3946,wlk
0.34609878,0.7046243,0.07365289,1.5566,0.362,-3.5184,-0.9977,-9.0899,-3.5423,wlk
0.07553785,1.8730525,-0.015481071,1.5423,3.3813,-1.3363999,-0.9931,-9.0496,-3.6453,wlk
1.059537,2.4571269,0.080704026,0.58019996,3.9952998,1.0393,-0.9823,-9.0458,-3.6576,wlk
1.5366054,1.3335712,0.40594614,-1.7522999,2.2179,3.8056998,-0.9641,-9.0824995,-3.5704,wlk
1.5482641,1.114864,0.37166786,-5.1077,-1.9582,3.6976,-0.91349995,-9.162499,-3.3739998,wlk
1.7291325,1.7671982,-0.14721853,-5.6612997,-6.0796,-0.5719,-0.8699,-9.2677,-3.0858998,wlk
1.5862424,1.4169106,-0.3726278,-2.7096,-6.3764997,-4.1633997,-0.8599,-9.3533,-2.8188,wlk
1.1226481,0.2618692,-0.20195204,-0.87189996,0.42769998,7.3457,-0.8344,-9.3713,-2.766,wlk
1.1009014,-0.15521213,0.11417944,-3.7638,5.4237,8.1651,-0.7276,-9.3757,-2.7812,wlk
1.2239121,0.06312856,0.33616787,-3.2157998,4.0534,3.1568,-0.59889996,-9.4373,-2.5978,wlk
1.1803662,0.3408977,0.41921064,4.2763,-1.2958,3.6351,-0.6087,-9.5013,-2.3504999,wlk
1.2064065,0.5963092,0.31494465,8.3187,-4.0955,6.5801997,-0.63019997,-9.5651,-2.0691,wlk
1.2567767,0.9554456,0.18441148,4.7128,-2.3739,2.8443,-0.52529997,-9.6391,-1.7263,wlk
1.239847,1.0903945,0.14086552,-0.46269998,-0.2658,-1.0675,-0.41979998,-9.687799,-1.4625,wlk
1.1600505,0.89081603,0.174882,-3.0195,0.72709996,1.0408,-0.3735,-9.7198,-1.2466999,wlk
1.0093763,0.69519955,0.25249678,-2.876,0.8886,1.1489999,-0.39929998,-9.7439995,-1.0313,wlk
0.9402263,0.42924628,0.34883896,-1.7721,0.73149997,0.9501,-0.4637,-9.7635,-0.79319996,wlk
0.9378003,0.34039158,0.41205478,-0.115899995,0.7237,1.174,-0.541,-9.7753,-0.566,wlk
0.97384137,0.2539803,0.35587263,0.6757,0.57409996,1.2979,-0.5973,-9.782599,-0.3369,wlk
0.9759881,0.30003956,0.25905922,0.9234,0.35189998,-0.024699999,-0.6292,-9.7859,-0.102699995,wlk
0.9744348,0.40147808,0.2332807,1.1668999,0.4184,-0.5082,-0.657,-9.7838,0.1257,wlk
1.0292555,0.4920956,0.3040189,0.9209,0.18509999,-1.4290999,-0.6954,-9.776,0.3405,wlk
1.0573554,0.49118802,0.437938,0.53499997,-0.0332,-1.3709999,-0.7507,-9.763599,0.5277,wlk
1.0008241,0.51818824,0.56157714,0.91239995,-0.2366,-1.3220999,-0.82409996,-9.7465,0.7043,wlk
0.90563387,0.53688073,0.62145936,1.9002,-0.2782,-1.332,-0.9098,-9.7245,0.88089997,wlk
0.73553413,0.4237834,0.594529,1.9547,-0.0587,-1.0652,-0.9838,-9.6988,1.0652,wlk
0.57943183,0.468586,0.48343876,1.0016999,0.26639998,-0.8754,-1.041,-9.671,1.2480999,wlk
0.48733082,0.60962605,0.22769566,0.1063,0.5688,-0.3685,-1.0968,-9.6399,1.4275999,wlk
0.3494149,0.78548545,0.06421066,-0.32029998,0.3148,-0.2023,-1.1702,-9.6017,1.6143999,wlk
-0.05551892,0.9424778,0.15247196,-0.0431,-0.3399,-0.2751,-1.2709,-9.5549,1.8048999,wlk
-0.64800584,0.7108377,0.2154609,0.6552,-1.2123,-0.2733,-1.4103,-9.4965,1.9993,wlk
-1.2810717,0.26176447,0.0036128315,1.3989999,-2.5374,-0.8351,-1.5363,-9.4463,2.1394,wlk
-2.232538,-0.109432146,-0.2448697,2.5691,-3.2654,-1.3719,-1.6668999,-9.3948,2.2642999,wlk
-2.9306521,-0.27282986,-0.35564575,2.9952,-2.9754,-2.7588,-1.7792,-9.351399,2.3567,wlk
-3.3053393,-0.48469537,-0.44258058,2.0568,-3.36,-4.0534,-1.8508999,-9.3199,2.4255,wlk
-3.3641047,-0.3277903,-0.5514193,1.8129,-3.9973,-5.0401998,-1.9011999,-9.3004,2.461,wlk
-2.9874277,-0.1722291,-0.65718627,3.8485,-5.138,-5.3364997,-1.9755,-9.2972,2.4141,wlk
-2.7521572,0.2385516,-0.8435002,5.236,-5.1948,-6.1384,-2.0488,-9.3189,2.2647,wlk
-2.5194352,0.25007078,-0.9692162,3.7963998,-4.0614,-5.9763,-2.0607,-9.3736,2.0144,wlk
-2.4995906,-0.27735028,-1.058961,0.7601,-1.3541,-1.8799,-2.0056,-9.4723,1.5562999,wlk
-2.4495173,-0.3015231,-0.9679596,-1.347,0.3653,-0.9364,-1.9382,-9.5541,1.0639,wlk
-2.3438027,-0.35758305,-0.85734063,-1.8902999,0.0986,2.2977,-1.8458999,-9.6209,0.4481,wlk
-2.3542223,-0.6556853,-0.8903972,-1.4384999,-2.7166998,2.7286,-1.7386999,-9.6494,-0.18869999,wlk
-2.2758222,-0.8217359,-0.7700742,-1.956,-5.8610997,0.9949,-1.6135,-9.6431,-0.7596,wlk
-2.0713916,-1.114672,-0.5847202,-1.7312,-5.5976996,0.7675,-1.4461,-9.6123,-1.2971,wlk
-1.6765982,-1.317392,-0.55880207,-1.1107,-3.9692998,2.1203,-1.2329999,-9.554,-1.8359,wlk
-1.2638627,-1.3989162,-0.62570053,-1.2526,-2.5293,3.4845,-1.0617,-9.4837,-2.2586,wlk
-0.7711737,-1.4728135,-0.63903487,-0.26,-1.1534,2.2407,-0.8775,-9.3691,-2.7603998,wlk
-0.19357447,-1.4006268,-0.60657173,0.5369,0.1564,2.2461,-0.7527,-9.2569,-3.1483,wlk
0.40577158,-1.070009,-0.51002014,-0.7299,1.099,2.9736,-0.6331,-9.111,-3.5718,wlk
0.9604896,-0.7710515,-0.4296477,-0.8364,2.2308,3.8163998,-0.556,-8.9484,-3.9733,wlk
1.4107845,-0.6243566,-0.26816985,-0.35729998,2.7026,5.0443,-0.5448,-8.7827,-4.3285,wlk
1.6351292,-0.7048512,-0.14217453,-0.32709998,3.1179,5.1061997,-0.5652,-8.6391,-4.6061,wlk
1.426894,-1.1021755,-0.0035953782,-0.754,3.5944998,5.7681,-0.5894,-8.5273,-4.8069997,wlk
0.8626813,-1.421466,0.10107201,-0.8958,4.2823,6.6168,-0.62409997,-8.4599,-4.9202,wlk
0.44614106,-1.2859411,0.00827286,-0.96819997,5.1928,6.3669,-0.65959996,-8.4486,-4.9351,wlk
-0.09827949,-0.78431606,0.029914944,-1.2717999,5.0968,5.1967998,-0.6796,-8.4997,-4.8438,wlk
-0.5334599,-0.51480234,-0.08239699,-1.3501999,4.4488997,2.7744,-0.67969996,-8.587299,-4.6867,wlk
-0.5474225,-1.1412534,-0.32063442,-1.1337,2.6787,-1.0282,-0.6903,-8.7196,-4.434,wlk
-0.015673056,-1.2538096,-0.48384017,-1.0459,-0.5683,-5.7391996,-0.729,-8.8754,-4.1066,wlk
0.54257053,-0.8022057,-0.44547784,1.0723,-3.9276998,-7.3368998,-0.8075,-8.977799,-3.8621998,wlk
0.9164724,-0.08339183,0.15515977,1.6587,-5.2079,-6.6737,-0.93299997,-9.0411,-3.682,wlk
0.45673522,-0.21745057,0.6837851,-0.46269998,-4.6756,-7.0934997,-1.0279,-9.073299,-3.5760999,wlk
-0.7084117,0.6045297,0.3926991,-0.64629996,-3.5163,-5.5818996,-1.0893999,-9.065599,-3.5774,wlk
1.0450683,2.5230305,-0.028989919,0.6803,-0.36589998,-3.2215,-1.1118,-9.0287,-3.6627,wlk
1.5495906,1.031542,0.18886207,0.84709996,2.3627,-0.5032,-1.1413,-8.992,-3.7429998,wlk
1.3679192,0.6509031,0.42872268,-2.6381,1.5576999,2.5037,-1.1471,-9.000899,-3.7198,wlk
1.7933607,1.758681,-0.2213601,-8.3182,-4.4823,2.27,-1.1255,-9.0507,-3.6037,wlk
1.9367919,1.4058278,-0.6150017,-6.7640996,-7.0692,-1.2422999,-1.1596,-9.1117,-3.4354,wlk
1.4281156,0.18195057,-0.4165752,-0.1424,-1.9164,5.6317997,-1.2990999,-9.1258,-3.3467999,wlk
1.1798949,-0.24926792,0.019041542,-0.8771,5.8013997,12.6805,-1.3292999,-9.066999,-3.4917,wlk
1.3125749,-0.13763666,0.30211648,-3.8404999,5.3736,2.1283998,-1.151,-9.139299,-3.3639998,wlk
1.3262757,0.12761848,0.3094294,4.7867,-0.5909,3.7206,-1.119,-9.2352,-3.1028,wlk
1.3500994,0.49267155,0.12564625,11.0939,-4.6672997,10.5328,-1.1596999,-9.307099,-2.8639998,wlk
1.4021277,0.7679798,-0.0016929694,4.8768,-4.0649,4.989,-1.0228,-9.4093,-2.5667,wlk
1.4266845,1.0111216,-0.00029670598,-1.2006999,-0.57739997,-1.2940999,-0.839,-9.513599,-2.2264,wlk
1.4063689,0.9661794,0.11063642,-3.8571,1.0677999,0.84849995,-0.75189996,-9.5799,-1.9567,wlk
1.3432927,0.90277153,0.25815165,-3.4617999,0.8756,2.2363,-0.76479995,-9.623099,-1.7263999,wlk
1.2411036,0.8144579,0.30819023,-1.5064,0.33409998,1.8731999,-0.8275,-9.6602,-1.4711,wlk
1.1001508,0.65462065,0.32780772,-0.283,0.2958,1.6481999,-0.8839,-9.690599,-1.2167,wlk
0.9928305,0.40407863,0.37070793,0.1621,0.43089998,1.3263,-0.8976,-9.7178,-0.96349996,wlk
0.9776287,0.12891002,0.41481242,0.4432,0.35619998,0.6554,-0.88449997,-9.7411995,-0.7044,wlk
1.0511943,-0.00061086525,0.41655773,0.6964,0.304,0.189,-0.87289995,-9.7576,-0.44399998,wlk
1.1121587,0.13887584,0.40037853,1.5963,-0.051599998,-0.29029998,-0.8903,-9.7648,-0.1607,wlk
1.1060675,0.3359759,0.40687114,2.2684999,-0.2409,-0.6292,-0.93479997,-9.7618,0.060399998,wlk
0.98818797,0.36929423,0.45848054,1.8804,0.072299995,-1.287,-0.9978,-9.7515,0.2868,wlk
0.8002509,0.25165904,0.5652249,1.0668,0.47869998,-1.4094,-1.0668,-9.736199,0.4876,wlk
0.58028704,0.15022048,0.61594415,0.8494,0.41979998,-1.0738,-1.1436,-9.716499,0.67179996,wlk
0.45877725,0.16697565,0.5975658,1.3536,0.1498,-0.6132,-1.2262,-9.6917,0.8584,wlk
0.4535587,0.27230626,0.37301177,1.5127,0.0995,-0.3557,-1.3068,-9.660999,1.0618,wlk
0.42823398,0.4827406,0.14027211,0.87729996,-0.2314,-0.0663,-1.3873,-9.6242,1.2724999,wlk
0.19046777,0.68190014,0.15709709,0.141,-0.3813,-0.9948,-1.4747,-9.5822,1.4753,wlk
-0.2814169,0.6553711,0.3600265,-0.044099998,-1.3676,-1.4175999,-1.5739,-9.5373,1.6529,wlk
-0.9363866,0.21434389,0.3931354,0.7193,-2.3355,-0.8653,-1.6902,-9.4911995,1.7968999,wlk
-1.8221412,-0.1508139,0.2533869,2.3322,-2.4961998,-0.6659,-1.8124,-9.4482,1.9015,wlk
-2.6657286,-0.54342574,0.0014660766,3.3144,-2.1636999,-1.3541,-1.9316,-9.408,1.9817,wlk
-3.0166795,-1.0102838,-0.34974653,1.9930999,-2.7165,-3.1348,-2.0126998,-9.375,2.0561,wlk
-3.2334318,-0.9014975,-0.6747792,0.8039,-3.1323,-4.4996,-2.0591,-9.351399,2.1166,wlk
-2.9442656,-0.8436223,-0.7656585,1.8919,-3.7256,-5.4284,-2.1174,-9.3368,2.1236,wlk
-2.781828,-0.6813242,-0.87418306,4.3399997,-5.1415997,-6.2005997,-2.2119,-9.333,2.0426,wlk
-2.6259177,-0.44371507,-1.0204766,5.6656,-5.1896996,-6.3799,-2.3019,-9.3534,1.8393999,wlk
-2.4164257,-0.642351,-1.1879758,5.2232,-3.1934,-2.9501998,-2.3401,-9.3983,1.5381,wlk
-2.4190962,-0.8157494,-1.1896514,3.2480998,-0.44689998,-0.4033,-2.3262,-9.4675,1.0603,wlk
-2.3876452,-0.7098603,-1.0405304,1.0374,0.1466,2.1048,-2.2437,-9.5316,0.5331,wlk
-2.3744156,-0.8734849,-0.9300685,-0.8512,-1.9655999,2.9289,-2.1103,-9.5767,-0.0458,wlk
-2.3613431,-1.1877489,-0.96782,-1.2478,-4.8357997,1.0761,-1.9686999,-9.5897,-0.576,wlk
-2.2033734,-1.2918578,-0.862245,-1.2526,-5.8325996,1.3011,-1.7972,-9.5735,-1.1344,wlk
-1.9252378,-1.6798619,-0.74405134,-0.4955,-4.2469997,1.8571,-1.6323999,-9.540999,-1.5726999,wlk
-1.5856316,-1.712744,-0.78805107,-0.63,-2.944,3.3860998,-1.4293,-9.4907,-2.0131,wlk
-1.1318111,-1.7193936,-0.8530122,-0.7008,-1.9906,2.9687,-1.2408,-9.4145,-2.4489,wlk
-0.57248545,-1.7222909,-0.83901465,0.2502,-0.8973,1.8991,-1.0837,-9.311399,-2.8797,wlk
0.04499459,-1.43583,-0.74179983,0.0032,0.0788,2.9998999,-0.9544,-9.1696,-3.3430998,wlk
0.54429835,-1.0816678,-0.5979149,-0.6083,0.9977,3.3688,-0.86259997,-9.0196,-3.7512999,wlk
0.9648878,-0.8174773,-0.43107888,-0.1951,1.3554,4.538,-0.8149,-8.8771,-4.0868998,wlk
1.3651093,-0.76122534,-0.29728192,0.14989999,1.9494,5.536,-0.8265,-8.7258,-4.3984,wlk
1.5450178,-0.9703158,-0.111491635,-0.2509,2.7177,5.8750997,-0.84739995,-8.5821,-4.6689,wlk
1.339069,-1.4643662,0.113568574,-0.87259996,3.5363998,6.3954,-0.8631,-8.4985,-4.8164997,wlk
0.7172954,-1.8226299,0.09791297,-1.1517999,4.4761,6.5506997,-0.8879,-8.4576,-4.8835,wlk
0.011903145,-1.5533081,-0.0259705,-1.5591999,4.9743,5.5857997,-0.90209997,-8.4752,-4.8503,wlk
-0.4868945,-0.9886592,-0.15414748,-1.6062,4.9097,4.1498,-0.90419996,-8.538199,-4.7381997,wlk
-0.69336694,-0.9289515,-0.41125193,-1.5846,3.7519,1.4097999,-0.9062,-8.6357,-4.5578,wlk
-0.45312238,-1.399021,-0.69666564,-1.7159,1.4462999,-1.9207,-0.922,-8.7621,-4.3064,wlk
0.0858702,-1.3866816,-0.83894485,-0.86039996,-1.7082,-5.5657997,-0.98319995,-8.8927,-4.0151997,wlk
0.6699272,-0.36198127,-0.61850977,1.5291,-4.176,-6.5618,-1.1172,-8.9942,-3.7449,wlk
0.83150977,-0.023143066,0.12456415,1.6899999,-5.0966997,-6.3129,-1.2682999,-9.0444,-3.5721,wlk
-0.6228382,-0.073234014,0.25747097,1.1484,-4.3891997,-5.5127,-1.374,-9.045899,-3.5289998,wlk
-0.19388862,1.5785979,0.2718525,1.4754,-2.4385998,-4.3735,-1.4166,-9.0155,-3.5893998,wlk
1.6360717,1.27793,0.34463271,1.5573,0.3565,-2.7059,-1.4102,-8.9766,-3.688,wlk
1.6328777,0.25307274,0.6400646,1.2518,2.4115999,0.56259996,-1.3891,-8.9623995,-3.7301998,wlk
1.6031023,0.9218829,0.43179446,-2.5323,-1.2954,5.3931,-1.3412,-8.9917,-3.6769,wlk
1.7925928,1.4227924,-0.28290042,-7.5799,-7.0952997,2.517,-1.2558,-9.0561,-3.5467,wlk
1.4056358,0.55604446,-0.44966662,-4.9568,-6.5603,-6.4311,-1.2801,-9.1107,-3.3950999,wlk
1.1066085,-0.5303357,-0.18744837,-3.2182,3.3829,13.715099,-1.332,-9.0609,-3.5063999,wlk
1.1913093,-0.63812727,0.19451694,-5.1245,7.0003,6.3971,-1.2693,-9.0401,-3.5825999,wlk
1.225099,-0.7024078,0.28576276,0.0769,3.1132,2.513,-1.2439,-9.1442995,-3.3172,wlk
1.2406673,-0.3477394,0.1712517,10.2799,-4.0485997,8.6919,-1.3557999,-9.2393,-2.9942,wlk
1.2321675,-0.009162978,0.008639379,9.6798,-6.3812,8.6059,-1.3833,-9.319099,-2.722,wlk
1.2268617,0.27269024,-0.0023387412,2.6030998,-2.0544999,1.0122,-1.2694,-9.4094,-2.4538,wlk
1.2569686,0.2674019,0.11218976,-2.5482,0.90489995,-0.8775,-1.1586,-9.4857,-2.2017,wlk
1.2558692,0.095783666,0.23624776,-3.1009998,1.1123999,1.3023,-1.1452,-9.5363,-1.979,wlk
1.2119392,0.01891937,0.25651103,-0.9316,0.2793,1.4714999,-1.2061,-9.576,-1.7363,wlk
1.1200825,-0.018570304,0.22294836,0.5383,0.0861,1.5328,-1.2837,-9.6083,-1.4837999,wlk
1.0443352,-0.0051487214,0.23436281,0.5514,0.67429996,0.9712,-1.3261,-9.6376,-1.236,wlk
1.0734473,-0.19753636,0.3155555,-0.0055,0.7212,0.84099996,-1.3281,-9.6649,-0.99789995,wlk
1.09954,-0.29120818,0.3837281,0.175,0.5094,0.2739,-1.3224,-9.688399,-0.74469995,wlk
1.1026641,-0.18514453,0.4074122,1.339,0.2564,-0.2821,-1.339,-9.7002,-0.5317,wlk
1.0430436,-0.022479841,0.3724707,2.3353,-0.1025,-0.062299997,-1.3841,-9.7041,-0.2906,wlk
0.9233664,0.11773991,0.32859313,1.8409,-0.214,-0.20269999,-1.4388,-9.700399,-0.0325,wlk
0.8274431,0.17814575,0.3134786,0.6245,0.3083,-0.5164,-1.4777,-9.6932,0.1633,wlk
0.6633473,0.036180675,0.37083012,-0.242,0.4134,-0.4933,-1.5231,-9.680699,0.3658,wlk
0.4415683,-0.14927801,0.4303633,0.131,-0.106599994,-0.7561,-1.5823,-9.6607,0.5796,wlk
