rotationRate.x,rotationRate.y,rotationRate.z,userAcceleration.x,userAcceleration.y,userAcceleration.z,gravity.x,gravity.y,gravity.z,class
0.9323898,-1.1233811,-0.33861133,-1.3291,-0.3698,0.81839997,1.8783,-9.613299,-0.47509998,wlk
1.1407821,-1.4108893,-0.38365826,-1.2679,-0.3822,0.9695,1.9445,-9.6009,-0.4596,wlk
1.2779999,-1.5390139,-0.45261624,-1.3133999,-0.3454,0.9544,2.0096,-9.5886,-0.43469998,wlk
1.4654307,-1.3530141,-0.37877136,-1.3201,-0.7402,0.8182,2.0751998,-9.5763,-0.3965,wlk
1.7367073,-1.1336961,-0.21861994,-1.2083,-0.9288,0.71349996,2.1399,-9.564199,-0.3409,wlk
1.974299,-1.0224314,-0.06764896,-1.4624,-1.0475,0.63019997,2.1979,-9.5534,-0.26729998,wlk
2.0371134,-1.0300584,0.15233234,-1.2922,-1.0875,0.24239999,2.2532,-9.5428,-0.1639,wlk
1.9617326,-0.9737716,0.37887606,-0.3162,-1.9302,0.7779,2.2972,-9.5337,-0.0326,wlk
1.8032917,-0.83445936,0.51719344,-0.3962,-2.9264,2.6139,2.3574998,-9.5181,0.1319,wlk
1.6625832,-0.9249721,0.6348286,-1.5728999,-2.4799,3.6546998,2.4359,-9.4939995,0.31689999,wlk
1.5973253,-1.1532961,0.8229751,-1.6807,-1.1156,2.7493,2.5045,-9.4657,0.5457,wlk
1.56008,-1.2497605,1.1270463,-0.9874,0.009099999,0.6951,2.5467,-9.4333,0.8346,wlk
1.3464518,-1.0330429,1.4919423,-0.2809,0.5466,-0.3577,2.5658998,-9.3921995,1.1716,wlk
1.0066885,-0.94743454,1.6860578,0.234,0.35369998,-0.793,2.5509999,-9.346399,1.5187,wlk
0.9109222,-1.2444197,1.684295,0.8721,-0.7029,-0.6157,2.5012999,-9.2997,1.8513,wlk
0.9808052,-1.4958693,1.6257393,1.2343,-1.6870999,-0.62799996,2.4234998,-9.2472,2.1873,wlk
0.9833185,-1.5099541,1.5370243,0.39729998,-1.8081,-0.15969999,2.3485,-9.204599,2.4348,wlk
0.9005026,-1.3957049,1.4056532,-1.6098,-1.8328999,-0.0174,2.2473,-9.160299,2.6848,wlk
0.81627303,-1.2805655,1.2651019,-3.0575,-1.581,-1.6025,2.0866,-9.1179,2.9459999,wlk
0.6990393,-1.2167388,1.1303799,-2.2389,-1.4426999,-3.4271,1.8858,-9.099299,3.1329,wlk
0.5658357,-1.2153425,0.9884672,0.087799996,-1.2888,-3.2431998,1.6281999,-9.0963,3.2824,wlk
0.43586108,-1.2339303,0.866748,1.8325,-0.62149996,-1.8427,1.3742,-9.087,3.4215999,wlk
0.34543556,-1.2003677,0.7993957,2.1868,0.0427,-0.7892,1.1962999,-9.064899,3.5449,wlk
0.21233675,-1.0898883,0.7131415,2.1141,0.6347,-0.39209998,1.0239,-9.0292,3.6871,wlk
0.031573005,-0.9548871,0.6245137,1.8031,0.987,-0.6631,0.87399995,-8.9892,3.8207998,wlk
-0.15697491,-0.8529075,0.5049761,1.7536,1.0236,-1.2276,0.747,-8.9474,3.944,wlk
-0.30602604,-0.7534586,0.35074136,1.6013,0.96519995,-1.8125999,0.6443,-8.9086,4.0485,wlk
-0.37067303,-0.6443581,0.15095353,1.6254,1.0699999,-1.9039999,0.5712,-8.8761,4.1301,wlk
-0.32744122,-0.46792278,-0.006806784,1.7795999,1.3786,-1.7276,0.52489996,-8.8513,4.1891,wlk
-0.19399334,-0.35201547,-0.10412634,1.7357,1.9971,-1.4577999,0.4903,-8.8323,4.2331,wlk
0.05532694,-0.21092305,-0.1736428,1.7623,2.3701,-1.0392,0.4637,-8.8229,4.2557,wlk
0.38325685,-0.06586873,-0.19603539,1.9109999,2.5412,-0.6105,0.4425,-8.8273,4.2488,wlk
0.58903116,-0.118909284,-0.121963605,1.9382999,2.5795,-0.0133,0.4348,-8.846,4.2105,wlk
0.40301397,-0.020350538,0.029705504,1.515,2.1476,0.80439997,0.4463,-8.875,4.1478,wlk
0.098419115,0.026022859,0.16632988,1.0073999,1.4239,1.6315,0.4831,-8.9064,4.0758,wlk
-0.16941911,-0.08288568,0.20415117,0.997,0.5858,2.8595998,0.5327,-8.9312,4.0148,wlk
-0.6220528,-0.074298665,0.07785914,0.9895,-0.5596,4.1489997,0.5893,-8.943,3.9805999,wlk
-1.0755068,0.19778071,-0.19174187,0.9625,-2.2461998,4.6067,0.6457,-8.9333,3.9936,wlk
-0.738571,0.43362704,-0.27443558,0.0326,-3.0381,3.6213,0.69299996,-8.8965,4.0671,wlk
-0.10365511,1.037895,-0.059550636,-0.3384,-1.464,2.3451,0.7306,-8.8427,4.1763,wlk
-0.75565773,2.0190318,0.19326031,0.561,0.6562,0.8652,0.7334,-8.8055,4.2537,wlk
-1.3687744,2.1576633,0.11250392,2.5101,1.6168,-0.98429996,0.7064,-8.7953,4.2792997,wlk
-1.2789773,1.4959741,-0.14686945,4.1344,0.4131,-1.2264,0.6904,-8.8076,4.2567,wlk
-1.3876066,1.3746911,-0.08702212,4.758,-2.5862,0.5473,0.69439995,-8.858,4.15,wlk
-1.6834399,1.4671761,0.05597271,3.1696,-4.5541,3.7422998,0.7236,-8.939799,3.9656,wlk
-1.5266045,1.2110491,0.10512118,0.5747,-3.2675,1.9419999,0.74909997,-8.9907,3.8437998,wlk
-1.2961339,0.86353654,-0.014590953,-0.23869999,1.4156,-5.8427,0.68979996,-8.9962,3.8421998,wlk
-1.1777133,0.5586624,-0.16348499,3.5663,4.7888,-5.3684,0.51309997,-9.0547,3.7307,wlk
-1.2468457,0.6771703,-0.2857104,1.6524999,2.162,-3.7057998,0.348,-9.1542,3.4998,wlk
-1.3113531,1.1080921,-0.3376165,-2.6368,-1.7333,-4.3312,0.2832,-9.2403,3.2721,wlk
-1.2524657,1.4762344,-0.3629063,-2.5448,-3.0279999,-4.9687,0.2206,-9.3282995,3.0172,wlk
-1.1894419,1.6304866,-0.37807322,-0.996,-1.8905,-3.1229,0.1331,-9.4263,2.7013,wlk
-1.1465068,1.612597,-0.37533304,0.75549996,0.032899998,-2.8299,0.0583,-9.5061,2.4082,wlk
-1.117063,1.5434121,-0.3963468,1.6768999,0.89779997,-2.204,0.029399998,-9.5668,2.155,wlk
-1.0667801,1.4003125,-0.37435567,2.2766,0.9614,-0.988,0.0475,-9.6206,1.9,wlk
-0.97776836,1.1656705,-0.37880626,2.3376,0.6199,-0.6579,0.0846,-9.6616,1.6777999,wlk
-0.86762065,0.83950335,-0.44587925,1.9044,0.396,-0.7822,0.1255,-9.702499,1.4196,wlk
-0.8108276,0.538277,-0.4651128,0.8717,0.1633,-1.1739,0.1677,-9.7346,1.1739,wlk
-0.76312774,0.26361454,-0.4436627,-0.3539,0.0013,-0.96129996,0.2166,-9.7589,0.9417,wlk
-0.75925314,0.17057103,-0.4123864,-1.3212999,0.15609999,-0.7291,0.2719,-9.7764,0.7193,wlk
-0.77145296,0.33438763,-0.43202135,-2.188,0.2075,-0.5324,0.3443,-9.7886,0.4834,wlk
-0.7473325,0.56580085,-0.40816268,-2.0346,0.438,-0.103199996,0.4067,-9.7936,0.2994,wlk
-0.6538003,0.5006477,-0.44350561,-1.3641,0.39929998,0.2004,0.4815,-9.7941,0.113299996,wlk
-0.5682967,0.47408378,-0.4677657,-1.2888,-0.0168,0.2286,0.5729,-9.7897,-0.0521,wlk
-0.42973498,0.579938,-0.4958306,-1.4240999,-0.50549996,0.81579995,0.66899997,-9.7815,-0.2077,wlk
-0.28412214,0.665145,-0.45223227,-1.3779,-0.389,1.219,0.7601,-9.770599,-0.3561,wlk
-0.25537658,0.75614643,-0.36456436,-1.0797,0.1663,1.2686,0.8443,-9.757199,-0.50369996,wlk
-0.21823597,0.84892815,-0.29293606,-0.64,0.2181,0.41459998,0.9342,-9.7403,-0.65,wlk
-0.02734931,0.7779456,-0.34185764,0.124699995,-0.087299995,0.36769998,1.0324,-9.719299,-0.7992,wlk
0.22404791,0.8582133,-0.41322416,-0.168,-0.4886,0.75769997,1.1192,-9.700399,-0.9048,wlk
0.65285784,0.7276627,-0.3311937,-0.88659996,-0.76559997,0.6906,1.22,-9.6784,-1.0044,wlk
1.2153251,0.3570071,-0.20362756,-1.5537,-1.5913,0.0827,1.3281,-9.656799,-1.0732,wlk
2.0345826,-0.012269665,-0.03141593,-1.694,-2.3356,0.7272,1.4293,-9.6382,-1.1097,wlk
2.537918,-0.48504445,0.21635102,-1.3779,-2.0967999,1.6064999,1.5152,-9.622,-1.1358,wlk
2.8863556,-0.77333796,0.45115015,-1.1968,-2.2575,2.9636,1.5891,-9.6085,-1.1494,wlk
2.965873,-0.82704175,0.6747094,-2.7874,-3.1215,3.7735999,1.6694,-9.5976,-1.1258,wlk
2.6944392,-0.3457148,0.8007221,-3.9643998,-4.5029,3.0751,1.7677,-9.5892,-1.0451,wlk
2.3234696,0.21553071,1.0798701,-4.0224,-4.5004997,3.8277998,1.8355,-9.591499,-0.89559996,wlk
2.0589125,0.010768682,1.2834802,-3.9322999,-3.9383,2.6434,1.8729,-9.6046,-0.6428,wlk
1.9789416,-0.37285468,1.3506405,-2.6357,-1.6248,-0.0187,1.8707999,-9.6234,-0.24589999,wlk
1.9424467,-0.5009793,1.2524134,-0.47759998,0.16,-0.28959998,1.8211,-9.6333,0.23079999,wlk
1.892251,-0.78751004,1.1136771,1.3737999,0.19739999,-1.5195999,1.7348,-9.6216,0.76449996,wlk
1.8941535,-1.293481,1.1066434,1.1886,-2.7043998,-0.2818,1.6159999,-9.5831995,1.3115,wlk
1.7975321,-1.4266496,1.1691786,0.7916,-5.2328997,-1.2227,1.4541,-9.5162,1.8699,wlk
1.5785106,-1.5787376,1.1442728,1.0871999,-4.9007998,-1.8038,1.2565,-9.4560995,2.2745,wlk
1.2915785,-1.6854645,1.1941543,1.1968,-2.5412,-2.5758,1.0095999,-9.3836,2.664,wlk
0.97563905,-1.8272724,1.2618905,1.1408,-0.8056,-3.0635998,0.7518,-9.285399,3.0635998,wlk
0.671498,-1.961785,1.233686,0.42139998,-0.4222,-3.6934998,0.569,-9.1882,3.3797,wlk
0.2684491,-1.9128634,1.0930823,-0.6336,-0.4269,-3.1074998,0.41779998,-9.0658,3.7154999,wlk
-0.17212437,-1.5965923,0.88982123,0.2819,0.009099999,-3.3123999,0.3064,-8.9135,4.0773,wlk
-0.48986155,-1.2983854,0.67970103,0.9317,0.14469999,-3.6179998,0.2254,-8.7844,4.3535,wlk
-0.6880786,-1.0584201,0.4298746,0.6882,0.3726,-4.2163997,0.1648,-8.6494,4.6184,wlk
-0.8756666,-0.9120393,0.18619172,0.91709995,0.96999997,-4.7936,0.1125,-8.5212,4.8524,wlk
-0.95848244,-0.96783745,0.0043982295,1.9695,2.1638,-4.9045997,0.08,-8.44,4.9927998,wlk
-0.8412487,-1.0079626,-0.1365022,2.6763,2.8271,-4.5673,0.0695,-8.3777,5.0969,wlk
-0.6069033,-0.96944314,-0.2321986,2.6134,3.2240999,-3.8132,0.083399996,-8.353,5.1370997,wlk
-0.24923302,-0.9984156,-0.20259781,2.7566,3.5881,-2.8866,0.096999995,-8.373799,5.1029,wlk
0.17516124,-1.064773,-0.003036873,2.5226,3.613,-1.7663,0.1153,-8.4281,5.0123,wlk
0.63016856,-0.8859815,0.29040533,2.1849,3.1654,-0.936,0.14899999,-8.500199,4.8880997,wlk
0.7611206,-0.9209928,0.61721826,1.8719,2.0465,0.49609998,0.20699999,-8.5875,4.7307997,wlk
0.3987379,-1.1012329,0.8102691,1.3781999,0.8724,1.994,0.2986,-8.6785,4.5568,wlk
-0.10091494,-0.9951693,0.80239767,0.3302,-0.44439998,2.8664,0.415,-8.7541,4.4002,wlk
-0.6190334,-0.9613448,0.6417401,-1.0711,-2.2073,3.4352999,0.5416,-8.8055,4.2825,wlk
-1.2235805,-0.65861744,0.42641884,-1.8202,-3.365,5.1102,0.663,-8.8246,4.2256,wlk
-1.2748758,-0.50787336,-0.23158774,-2.1852999,-4.3801,5.5453997,0.7536,-8.8097,4.2415,wlk
-0.15875515,-0.42252675,-0.4110774,-2.3566,-3.3902998,2.4178,0.7777,-8.76,4.3389,wlk
-0.07068583,1.1005523,0.044296455,-2.2793,0.5236,1.1412,0.7495,-8.7023,4.4583,wlk
-1.4166489,2.0537114,-0.20305161,-1.3823999,3.3920999,0.6749,0.7057,-8.677899,4.5127,wlk
-1.4621321,1.1728438,-0.86118037,0.60069996,3.3723,-0.8447,0.6544,-8.6973,4.483,wlk
-1.6003797,1.0640749,-0.8849692,4.0112,0.59099996,-1.8823999,0.62729996,-8.7599,4.3635,wlk
-1.861446,0.9772273,-0.11625638,8.5786,-5.9488,0.6064,0.6101,-8.868899,4.1398997,wlk
-1.7438457,0.4808382,0.21263346,3.2789,-12.0866995,5.2474,0.7025,-8.9779,3.8825,wlk
-1.3522112,0.01425934,0.112661004,0.111499995,-1.5094999,-5.3799996,0.80039996,-8.9836,3.8502,wlk
-1.2202644,0.032899458,-0.27153832,7.8201,8.4704,-9.1968,0.7116,-8.9902,3.8521,wlk
-1.2345062,0.031066861,-0.43270203,5.2936997,8.3779,-3.317,0.59999996,-9.0938,3.6209998,wlk
-1.2232314,0.29768336,-0.32417744,-4.8865,-1.6406,-6.1509,0.67939997,-9.1858,3.3658,wlk
-1.1683933,0.5329188,-0.19392353,-8.8076,-8.4918995,-9.1219,0.77599996,-9.277599,3.0809999,wlk
-1.0694505,0.74675655,-0.15508996,-4.1935,-4.6864,-5.7335997,0.7416,-9.386,2.7424998,wlk
-1.0004576,0.8583878,-0.17996089,1.1069,1.1546999,-1.5611999,0.6778,-9.4805,2.4143999,wlk
-0.9384461,0.74534285,-0.25485298,3.8827,2.602,-0.9059,0.6577,-9.5451,2.1513999,wlk
-0.8450535,0.4844336,-0.36206856,2.2017999,0.5895,-0.9709,0.7107,-9.592,1.9124,wlk
-0.75471526,0.291278,-0.36920694,0.098799996,-0.59419996,-0.9593,0.80329996,-9.6341,1.6458,wlk
-0.7386233,0.18968238,-0.29040533,-0.3044,-0.015199999,-0.8728,0.85359997,-9.663899,1.4318,wlk
-0.7774918,0.14336134,-0.19463912,0.0817,0.55219996,-0.4147,0.8793,-9.691999,1.2091,wlk
-0.81515604,0.1619142,-0.15173893,0.0169,0.5442,-0.1364,0.895,-9.7134,1.0091,wlk
-0.823394,0.11072369,-0.17662732,-0.45549998,0.2261,-0.15789999,0.91639996,-9.7288,0.8247,wlk
-0.8330282,0.046722464,-0.21235421,-1.359,-0.294,0.2906,0.9569,-9.7381,0.6508,wlk
-0.81424844,-0.01823869,-0.26145032,-2.2589998,-0.6739,0.9996,1.0234,-9.7407,0.49089998,wlk
-0.7465471,-0.0024260078,-0.33180454,-2.5353,-0.6949,0.9978,1.0936999,-9.7393,0.34559998,wlk
-0.65959483,0.11691961,-0.45198792,-2.5616999,-0.32459998,0.9356,1.1495,-9.736899,0.20189999,wlk
-0.5215393,0.22298327,-0.54367006,-2.0598,0.2023,0.76379997,1.1869999,-9.7344,0.049999997,wlk
-0.4121246,0.1873262,-0.5653645,-1.3535,0.6101,0.76519996,1.2162,-9.7303,-0.1081,wlk
-0.4044975,0.14559537,-0.5221676,-0.78959996,0.6419,0.56299996,1.2505,-9.722799,-0.2688,wlk
-0.44348815,0.1105317,-0.43025857,-0.1541,0.4737,0.4718,1.2916,-9.7115,-0.4326,wlk
-0.3825238,0.21074851,-0.35149187,0.41349998,0.56619996,0.80969995,1.3418,-9.696199,-0.59389997,wlk
-0.18807667,0.412526,-0.33709288,0.3789,0.6745,0.7608,1.4058,-9.677,-0.7412,wlk
0.22935371,0.46917942,-0.4123515,-0.8278,-0.0652,-0.0148,1.4947,-9.6531,-0.8677,wlk
0.7640004,0.27345818,-0.3156777,-1.7106999,-1.0232999,-0.8601,1.6028,-9.626599,-0.96389997,wlk
1.4635458,-0.06841691,-0.08094837,-2.0474,-2.0311,-0.8139,1.714,-9.5995,-1.0394,wlk
2.2697833,-0.50476664,0.22059216,-1.8843,-2.4798,0.4276,1.8155999,-9.5724,-1.1141,wlk
2.6067364,-0.6925292,0.48530626,-1.9375999,-2.7707,2.4026,1.8984,-9.5464,-1.1963999,wlk
2.9098303,-0.8146499,0.5755223,-1.7231,-3.2050998,3.5370998,1.9682,-9.5238,-1.262,wlk
2.907928,-0.7396531,0.71842986,-2.5205,-4.2230997,3.6346998,2.04,-9.5061,-1.2810999,wlk
2.5130997,-0.4426504,0.84182465,-4.2053,-4.9691,3.2863998,2.1262999,-9.4956,-1.2171999,wlk
2.376929,-0.49916416,1.0725921,-5.1296997,-4.9739,3.2751,2.1877,-9.5006,-1.0588,wlk
2.3703666,-0.69146454,1.195184,-4.236,-3.3211,1.8014,2.1962,-9.525499,-0.7815,wlk
2.192343,-0.86278605,1.1699466,-0.7553,-0.6926,-0.0751,2.1381,-9.5651,-0.3269,wlk
2.130471,-0.9290737,1.1728089,1.7667999,0.96,0.6271,2.0479,-9.5899,0.0985,wlk
2.0837486,-0.9309586,1.1243585,1.3465999,-0.4312,-1.2771,1.9287,-9.5911,0.6789,wlk
2.027968,-1.1192622,1.2402309,-0.38059998,-3.9455,-1.1277,1.8124,-9.5679,1.1571,wlk
1.9350116,-1.1432954,1.2492194,-0.84529996,-5.3977,-1.3483,1.6593,-9.528,1.6229,wlk
1.7819811,-1.3636432,1.1642742,-0.057099998,-3.8818998,-2.2068,1.4692999,-9.4746,2.0597,wlk
1.6027359,-1.6522857,1.1048807,0.47469997,-2.299,-3.3021,1.2708,-9.4002,2.4881,wlk
1.3077753,-1.8899124,1.0390818,0.5141,-1.5352,-2.4067,1.0941,-9.3109,2.8774,wlk
0.89153165,-1.8777997,0.95949477,0.4331,-1.1608,-2.2618,0.9299,-9.2046995,3.2523,wlk
0.353499,-1.6460375,0.8446521,-0.147,-1.0189999,-2.3903,0.7844,-9.081699,3.6160998,wlk
-0.17640042,-1.2413654,0.74138093,0.4463,-0.036199998,-3.2287,0.6421,-8.9466,3.9641998,wlk
-0.5897293,-0.9201376,0.5970422,0.675,0.79039997,-4.3904,0.5115,-8.8025,4.2924,wlk
-0.96054196,-0.84507096,0.38290778,0.84849995,1.3407999,-4.8039,0.4262,-8.6566,4.5881,wlk
-1.3149486,-0.85875434,0.14280283,1.0518,1.8377999,-4.9353,0.3897,-8.5161,4.8469996,wlk
-1.4420259,-1.0119593,-0.114301614,1.3665999,2.2872999,-4.7068996,0.3985,-8.3968,5.0501,wlk
-1.1884296,-1.3994399,-0.21512929,1.4648,3.0400999,-4.6598997,0.4278,-8.3161,5.1797,wlk
-0.7419569,-1.7859081,-0.13514084,1.5339999,3.7782,-4.2883997,0.4567,-8.2892,5.2201,wlk
-0.27131143,-1.2438961,0.018430676,2.0983,4.6196,-4.0578,0.46109998,-8.3167,5.1758,wlk
0.23052308,-0.58803636,0.28002062,1.7321999,4.4915,-3.0746999,0.45459998,-8.3847,5.0655,wlk
0.49445176,-1.0686651,0.55840063,1.4878,3.7589998,-1.1954,0.4734,-8.4858,4.8925,wlk
0.3003537,-1.3765063,0.8020486,1.2389,1.7426,1.0358,0.536,-8.6269,4.6324,wlk
-0.22218041,-0.990614,0.8844456,0.15869999,-1.2389,2.9219,0.63549995,-8.7441,4.3938,wlk
-0.83592546,-0.55433404,0.7370874,-1.2041,-3.1106,4.6726,0.79219997,-8.843599,4.1631,wlk
-0.9227207,-0.59512234,0.09187413,-2.7519999,-4.2819,6.7356997,0.977,-8.9079,3.9829,wlk
-0.05232497,-0.5007873,-0.21198769,-1.9528999,-5.0466,4.8898,1.0605,-8.9278,3.9164999,wlk
0.29984757,0.5019218,-0.039095376,-1.8488,-3.7052999,2.6348,1.0545,-8.9158,3.9454,wlk
-1.0297443,1.2970414,-0.21760765,-2.9104,-0.4869,2.1861,1.0373,-8.8882,4.0116,wlk
-1.4193716,0.86215776,-0.6659827,-2.1499999,1.643,0.4732,1.0026,-8.8804,4.0376997,wlk
-1.5327481,0.7839321,-0.5508259,1.6472,0.15779999,-0.96919996,0.92209995,-8.9152,3.9798,wlk
-1.7643708,0.8820021,0.007120943,6.8855996,-4.0985,-1.0943,0.8322,-8.9932995,3.8205998,wlk
-1.4139435,0.3019245,0.26101398,4.6614,-6.5778,3.191,0.85969996,-9.0637,3.6441,wlk
-1.0431658,-0.3160442,0.16151276,2.4582999,0.73789996,-2.4192998,0.93469995,-9.0637,3.6255999,wlk
-1.0690839,-0.46500808,-0.17935003,6.1347,7.0701,-6.6696,0.90639997,-9.0412,3.6883998,wlk
-1.1257548,-0.47057566,-0.28693214,3.9018,5.2086997,-2.7292,0.85429996,-9.1118,3.5235,wlk
-1.1058058,-0.3314031,-0.27214918,-5.2827,-2.5316,-5.9936,0.9187,-9.197,3.2772,wlk
-1.0787356,0.01802925,-0.18622664,-8.0372,-6.2317,-8.4606,0.97639996,-9.2921,2.9787,wlk
-1.0482447,0.23279202,-0.16715018,-4.0183,-3.1687999,-5.6549,0.9292,-9.3836,2.6933,wlk
-1.0846,0.33616787,-0.23232077,1.0876,0.95949996,-1.5160999,0.8638,-9.4619,2.4282,wlk
-1.0872529,0.28975955,-0.30757937,2.7807,2.0807,-0.7008,0.8476,-9.5141,2.2208,wlk
-0.9969844,0.12068952,-0.3671649,1.5402,0.63299996,-1.1222,0.9015,-9.557,2.0047998,wlk
-0.9035919,0.0056723203,-0.39753366,0.23179999,-0.22129999,-0.69769996,0.97429997,-9.594999,1.7764,wlk
-0.8337787,-0.03440044,-0.3835361,-0.1943,0.0263,-0.61179996,1.0375999,-9.627,1.5532,wlk
-0.832365,-0.105662234,-0.30501375,0.0449,0.39749998,-1.2337999,1.073,-9.6549,1.3416,wlk
-0.8443554,-0.19868828,-0.2366841,-0.2463,0.68509996,-1.0812,1.0995,-9.6778,1.14,wlk
-0.88638294,-0.10698868,-0.21795672,-1.0687,0.3008,-0.59029996,1.1373999,-9.6956,0.9335,wlk
-0.92706656,0.07559021,-0.23830725,-1.4174,-0.0311,-0.3724,1.1919,-9.7067995,0.7254,wlk
-0.8652121,0.09885545,-0.31630602,-1.5159999,-0.0469,0.2043,1.2610999,-9.7107,0.5311,wlk
-0.7210304,0.044296455,-0.3930307,-1.4060999,-0.17639999,0.491,1.3374,-9.7086,0.3522,wlk
-0.601999,0.11417944,-0.4341332,-1.5777,-0.5451,0.5101,1.411,-9.7028,0.18609999,wlk
-0.4802797,0.23944172,-0.46539205,-1.6025,-0.4351,1.0864,1.4750999,-9.695,0.0021,wlk
-0.31866223,0.26096162,-0.5007175,-1.8676,-0.1384,1.2710999,1.5144999,-9.687699,-0.1532,wlk
-0.2579073,0.16720255,-0.49544662,-1.5643,0.3312,0.7425,1.5545,-9.677,-0.3306,wlk
-0.24741787,0.15016812,-0.43828708,-0.6875,0.5416,0.4411,1.5995,-9.661799,-0.5098,wlk
-0.15561356,0.24129176,-0.3669904,-0.1498,-0.0376,0.7639,1.66,-9.641399,-0.6757,wlk
-0.0019547688,0.36266196,-0.3170216,-0.1656,-0.4637,1.1581,1.7347,-9.617499,-0.8149,wlk
0.3473729,0.27761206,-0.26289895,-0.7089,-0.82549995,0.9,1.8269,-9.589,-0.9392,wlk
0.88577205,-0.056583576,-0.20362756,-1.4582,-1.683,-0.023899999,1.9094,-9.5652,-1.0155,wlk
1.6756731,-0.39973277,-0.07093018,-2.0082,-2.3071,-0.1581,2.0082,-9.5392,-1.0676,wlk
2.3786743,-0.69668305,0.17456783,-2.643,-2.47,1.2483,2.1036,-9.513599,-1.111,wlk
2.7874653,-0.91671675,0.4350582,-2.9914,-2.9155,2.5154,2.1873,-9.4897995,-1.1523,wlk
3.0381122,-0.9065938,0.72504467,-3.171,-3.3759,3.0834,2.2589998,-9.470699,-1.1711,wlk
2.8524964,-0.7075565,0.91820025,-3.4023,-4.0269,3.3119,2.3236,-9.4571,-1.1544,wlk
2.5318794,-0.11328932,1.1515334,-3.9735,-4.1184998,3.6636,2.375,-9.4538,-1.0747,wlk
2.2545815,0.043825217,1.4028957,-4.4667997,-3.8739,3.5266,2.4074,-9.462999,-0.90819997,wlk
2.1545916,-0.27780405,1.5082263,-3.5763,-2.0558,1.6769999,2.4092999,-9.4866,-0.608,wlk
2.0564866,-0.38564795,1.4073637,-1.051,0.1303,0.4324,2.3651,-9.5153,-0.1872,wlk
1.9377168,-0.5820324,1.3215982,0.6149,0.8448,-0.86219996,2.2779999,-9.5335,0.3033,wlk
1.9368792,-0.8459087,1.2454495,0.7111,-0.983,-1.7026,2.1327,-9.5296,0.89849997,wlk
1.9153767,-1.0950022,1.2158487,0.7414,-4.9582996,-1.1175,1.9848,-9.506499,1.3627,wlk
1.7682455,-1.4143275,1.1552858,1.5493,-6.0153,-1.497,1.7651999,-9.469299,1.8402,wlk
1.5746535,-1.6245874,1.1406773,1.9548999,-4.3810997,-1.8793999,1.4675,-9.416699,2.3109,wlk
1.2513312,-1.7900445,1.143627,1.7303,-2.0184999,-2.4036999,1.2214,-9.3572,2.6685,wlk
0.8464498,-1.8426313,1.118756,-0.0067999996,-1.3003,-3.2879999,0.9777,-9.2712,3.0428,wlk
0.38821357,-1.8011099,1.032624,-0.7187,-0.3814,-2.8597,0.76769996,-9.170199,3.3892999,wlk
-0.1728574,-1.5132004,0.89179343,-0.16589999,0.3123,-3.3274999,0.5974,-9.05,3.7296,wlk
-0.64046603,-1.0527827,0.68109727,0.601,0.7703,-3.7113,0.4482,-8.9,4.0937,wlk
-0.9178861,-0.6688102,0.4599466,0.7291,0.8315,-4.0980997,0.3691,-8.7748995,4.3628,wlk
-1.1571882,-0.53710765,0.2664594,0.75509995,1.1501,-4.6631,0.3137,-8.6424,4.6239,wlk
-1.3544453,-0.52592003,0.086393796,1.2283,1.7641,-4.7186,0.2819,-8.5209,4.8461,wlk
-1.3648126,-0.5734279,-0.12622221,2.0721,2.5692,-4.6499,0.2716,-8.453199,4.9637,wlk
-1.105317,-0.66221285,-0.22727677,2.5095,3.1555998,-4.2026,0.27539998,-8.4218,5.0165997,wlk
-0.6897541,-0.6321059,-0.14646803,2.6668,3.7995,-3.3546,0.2751,-8.4478,4.9726996,wlk
-0.20640263,-0.5665164,-0.05461135,2.6194,4.0963,-2.3961,0.26369998,-8.5093,4.8673997,wlk
0.4903677,-0.31817353,0.090844385,1.997,3.619,-1.3704,0.24859999,-8.6008,4.7046,wlk
0.9041329,-0.68017226,0.28506464,1.9447,2.6982,0.34469998,0.2519,-8.7097,4.4997,wlk
0.50181705,-0.5722062,0.43244022,1.5605999,1.0725,2.2637,0.283,-8.829599,4.2576,wlk
-0.0986111,-0.18968238,0.44148102,-0.009699999,-0.89379996,3.4524999,0.353,-8.9422,4.0102997,wlk
-0.6341305,-0.28975955,0.31983158,-1.0633,-2.2408,4.1375,0.4455,-9.026999,3.8058,wlk
-1.1728089,-0.2857104,-0.0028099802,-1.1074,-3.4654999,5.4648,0.519,-9.0772,3.6748998,wlk
-1.3443224,-0.29286626,-0.47829002,-0.8738,-4.6966,5.9000998,0.56979996,-9.0914,3.6318998,wlk
-0.52921873,0.043598324,-0.25715682,-1.4096,-3.2510998,3.5681999,0.576,-9.0561,3.7180998,wlk
-0.23921482,1.4846817,0.3352952,-2.2031,0.6448,2.5584,0.57519996,-8.9903,3.8746,wlk
-1.2559389,2.4004385,0.4169068,-0.96309996,3.846,0.6101,0.5414,-8.9552,3.9596999,wlk
-1.357552,1.5108442,-0.24532348,1.9160999,3.1713,-1.9310999,0.4766,-8.967,3.9413998,wlk
-1.3377949,0.94111645,-0.5191482,6.0892997,0.0163,-3.1292999,0.44189999,-9.0188,3.8256,wlk
-1.6668767,1.0527477,-0.19586085,6.0958,-5.5649,0.547,0.46469998,-9.1057,3.6109,wlk
-1.7412801,1.0327462,0.097337015,1.0540999,-7.8986998,4.8651,0.5737,-9.1942,3.3625998,wlk
-1.4401236,0.8718967,0.11739085,-1.8742,-3.2675998,-1.5597,0.6189,-9.226,3.266,wlk
-1.2329879,0.646435,-0.029164452,4.8238997,5.401,-7.8662996,0.46179998,-9.2452,3.2375,wlk
-1.2811415,0.73535955,-0.17657496,6.1099,6.9280996,-4.2057,0.2251,-9.3307,3.0093,wlk
-1.3237798,1.078055,-0.22493804,-0.2956,0.9316,-4.4006,0.18779999,-9.4046,2.7726998,wlk
-1.2020606,1.2327261,-0.19896753,-4.6601,-4.4811,-5.6801996,0.2373,-9.4737,2.5225,wlk
-1.0519798,1.4179753,-0.14723597,-2.9706,-3.758,-4.0301,0.22479999,-9.559299,2.1766,wlk
-0.9678898,1.6461596,-0.1412844,-0.17119999,-0.3202,-1.8184999,0.17119999,-9.6237,1.8773999,wlk
-0.9033475,1.6647124,-0.15948819,2.4301999,1.2603999,-1.3054,0.119399995,-9.6744995,1.5996,wlk
-0.84631014,1.591304,-0.18879226,2.9336,1.1142,-0.5808,0.1063,-9.7146,1.3359,wlk
-0.793671,1.3842729,-0.23303635,2.2305999,0.75979996,-0.081199996,0.122899994,-9.7427,1.1108999,wlk
-0.73227036,1.0750006,-0.25886723,1.0292,0.3931,-0.8533,0.1475,-9.7683,0.8533,wlk
-0.71657985,0.87498593,-0.25441664,0.32,0.0083,-0.3258,0.17019999,-9.7855,0.62,wlk
-0.7356039,0.7723082,-0.22952825,0.1274,-0.1381,-0.2504,0.1863,-9.796,0.41709998,wlk
-0.7615395,0.6981841,-0.26741934,-0.5582,-0.2304,0.1112,0.2052,-9.8017,0.23189999,wlk
-0.76569337,0.6119648,-0.37660715,-1.2825999,-0.1304,0.1945,0.2333,-9.803599,0.060399998,wlk
-0.7230026,0.5331108,-0.4651128,-1.5473,0.0643,0.079399996,0.2724,-9.8022995,-0.099,wlk
-0.6729815,0.5547354,-0.49666834,-1.6970999,0.0797,0.2086,0.3242,-9.7980995,-0.2478,wlk
-0.6396981,0.633188,-0.48235664,-1.791,0.0822,0.3789,0.38869998,-9.7908,-0.3985,wlk
-0.5902878,0.71818554,-0.4532271,-1.481,0.3391,0.392,0.44149998,-9.7829,-0.51949996,wlk
-0.51443577,0.7623249,-0.3910061,-0.5257,0.6224,0.2453,0.49629998,-9.771999,-0.6572,wlk
-0.46771333,0.82281804,-0.30845204,0.1858,0.726,0.3583,0.55939996,-9.757899,-0.7996,wlk
-0.43074727,0.9130865,-0.23663174,-0.0559,0.3353,0.56,0.6443,-9.7399,-0.9424,wlk
-0.31595695,0.9574527,-0.2261074,-0.46179998,-0.1467,0.8215,0.74619997,-9.718699,-1.0764999,wlk
-0.15514232,1.0649476,-0.29312804,-0.8362,-0.42499998,0.7086,0.8558,-9.6953,-1.1989,wlk
0.1314582,1.0911798,-0.31869712,-1.2989,-0.6755,0.45859998,0.9655,-9.6704,-1.3118,wlk
0.5712288,0.8969596,-0.21774727,-1.4943999,-1.3972,0.3525,1.0727,-9.6449995,-1.4116,wlk
1.1475191,0.5703038,-0.031712633,-1.327,-1.8524,0.84669995,1.1701,-9.6212,-1.4939,wlk
1.949079,0.22462387,0.19865337,-1.1072,-2.0702999,1.6912999,1.2543,-9.5995,-1.5638,wlk
2.4593086,-0.18647097,0.391041,-0.83809996,-2.296,2.6522,1.3284,-9.5798,-1.6225,wlk
2.8232794,-0.42385322,0.4878719,-1.4394,-2.5885,3.6009998,1.41,-9.5618,-1.6593,wlk
2.9207213,-0.39622465,0.6212325,-2.7268999,-3.3163,3.7554,1.4912,-9.5499,-1.6567999,wlk
2.5874157,-0.045256387,0.7998495,-3.6455,-4.0959997,3.7243,1.5861,-9.5449,-1.5962,wlk
2.3143764,0.33033848,1.1090171,-4.1145,-4.2124,4.0643,1.653,-9.556,-1.4556999,wlk
2.1942978,0.09819222,1.3284224,-3.7802,-3.1523,3.0384,1.6718,-9.5864,-1.2143999,wlk
2.0925798,-0.11458086,1.3072691,-1.7398,-0.95369995,0.48729998,1.6319,-9.6374,-0.7913,wlk
2.0483358,-0.12658873,1.1660894,0.85289997,0.692,1.5626,1.5594,-9.6749,-0.3662,wlk
2.088077,-0.4175002,1.0107377,1.6272,0.29099998,-0.2983,1.4617,-9.695499,0.1708,wlk
2.0510063,-0.5719444,0.95539325,0.79499996,-2.7185,-0.0324,1.3428,-9.6869,0.72859997,wlk
1.9322715,-0.73075193,0.84753186,0.63699996,-5.6222,-0.80869997,1.1869999,-9.6564,1.2304,wlk
1.7765008,-0.9884847,0.75925314,1.5485,-5.5091,-1.1559,0.9619,-9.6126995,1.6854,wlk
1.6086874,-1.3550911,0.6775892,2.2691,-3.0598998,-2.0600998,0.7022,-9.5513,2.1090999,wlk
1.3206383,-1.6231562,0.6506762,1.8957,-1.5038999,-2.0656,0.4578,-9.4697,2.5068998,wlk
0.86981976,-1.744474,0.6109525,0.8836,-1.0279,-2.0591,0.24399999,-9.3671,2.8927,wlk
0.28000316,-1.6407666,0.55838317,0.3076,-0.1082,-1.5144999,0.065,-9.2277,3.3188999,wlk
-0.32325244,-1.2292179,0.4796514,0.4888,0.3807,-2.412,-0.057299998,-9.0988,3.6574,wlk
-0.75696677,-0.8107927,0.38481018,0.79219997,1.3488,-3.7036,-0.1548,-8.948999,4.0076,wlk
-1.10886,-0.59321994,0.25354397,0.9235,2.0709999,-4.3750997,-0.2076,-8.7984,4.3259997,wlk
-1.3640271,-0.6496988,0.11428416,0.94049996,2.4642,-4.8959,-0.205,-8.6522,4.6115,wlk
-1.5301301,-0.8659102,-0.097092666,1.1539,3.1417,-4.8726997,-0.1634,-8.525499,4.8433,wlk
-1.4008187,-1.0539869,-0.2764427,1.3604,3.6437,-4.7587,-0.0954,-8.439199,4.994,wlk
-0.9339955,-1.0048559,-0.21640338,1.4466,4.1846,-4.0611,-0.0246,-8.4112,5.0418,wlk
-0.264557,-0.84732246,-0.061784655,2.0216,4.3059998,-3.3874998,0.018099999,-8.4444,4.986,wlk
0.49204323,-0.24928537,0.16203637,1.8202,4.0971,-2.6199,0.0332,-8.519899,4.8557997,wlk
0.8546179,-0.5730091,0.32616714,1.5221,3.4877,-1.0354999,0.0469,-8.6264,4.664,wlk
0.5543689,-0.9026145,0.45841074,1.4427999,1.9549999,1.2921,0.087,-8.750999,4.4251,wlk
-0.09360201,-0.710925,0.48781952,0.1158,-0.8136,4.1714,0.1881,-8.894899,4.1249,wlk
-0.80498075,-0.44142866,0.33063516,-0.9565,-3.4008,6.3237996,0.3093,-8.9946995,3.8946998,wlk
-1.2373338,-0.3233746,-0.13482669,-0.8372,-5.1948,7.8427997,0.4253,-9.064,3.7192,wlk
-0.7362846,-0.20633282,-0.30311134,-0.49929997,-5.9117,7.1229,0.49929997,-9.0826,3.6643,wlk
0.14568263,0.6939953,0.19547687,-0.22379999,-3.2403998,2.5928,0.4886,-9.0472,3.7519999,wlk
-0.75188786,2.1034708,0.43725735,-1.6308999,1.0900999,1.6093999,0.4737,-8.9845,3.9018,wlk
-1.3661215,1.4331248,0.0037873646,-0.47259998,4.0313,0.055999998,0.4628,-8.9444,3.994,wlk
-1.405374,0.8810771,-0.3639186,2.4898999,2.0224,-1.0692999,0.4324,-8.9557,3.9720998,wlk
-1.6039401,1.2309458,-0.13486159,5.7208,-3.1295,-1.0002999,0.40829998,-9.0208,3.8246,wlk
-1.5532383,1.2085707,0.1121025,3.5038998,-7.6973996,2.4033,0.4579,-9.1111,3.5981998,wlk
-1.2938824,0.7639306,0.1950929,-0.72499996,-4.1576,1.6075,0.52889997,-9.159699,3.4624,wlk
-1.132422,0.35515705,0.050911255,3.0351999,4.0813,-7.4286,0.4461,-9.1514,3.4961,wlk
-1.1865796,0.34821063,-0.13547246,6.2099,7.421,-4.6275,0.2232,-9.2058,3.3722,wlk
-1.2417145,0.48101273,-0.19926424,0.54539996,2.7633998,-4.1639,0.1312,-9.2946,3.1244,wlk
-1.2676675,0.81559235,-0.22027801,-4.8156,-3.5667,-4.6387997,0.1477,-9.377999,2.8637998,wlk
-1.2239296,1.1179707,-0.23013912,-3.2061,-5.1468,-5.6524997,0.1072,-9.465,2.5634,wlk
-1.1900877,1.2747536,-0.26063,-0.34219998,-1.5408,-3.0430999,0.0284,-9.5406,2.2684,wlk
-1.1921995,1.3625262,-0.33758157,2.1390998,1.3587999,-1.4307,-0.0405,-9.596399,2.0191,wlk
-1.1395953,1.3076879,-0.37952185,2.5949,1.3083,-1.2872,-0.0648,-9.6439,1.7774999,wlk
-1.0374062,1.0950719,-0.42502257,2.0214,0.6286,-1.1965,-0.0502,-9.6800995,1.5691999,wlk
-0.9804038,0.92984164,-0.50447,1.7597,0.508,-0.95369995,-0.023899999,-9.716499,1.3263,wlk
-0.95692915,0.7979122,-0.51192254,1.4993,0.5093,-0.9404,0.0009999999,-9.7472,1.0777,wlk
-0.94921476,0.5815437,-0.48834312,1.0719,0.34649998,-0.6218,0.0263,-9.7706995,0.8375,wlk
-0.9476963,0.3765548,-0.46212828,0.0729,0.2669,-0.47329998,0.0643,-9.7892,0.5811,wlk
-0.9747489,0.40742967,-0.45094073,-0.9138,0.4147,-0.2701,0.119399995,-9.7997,0.3486,wlk
-0.96987945,0.55742323,-0.46523497,-1.3295,0.4482,-0.1889,0.1821,-9.8038,0.1496,wlk
-0.91114914,0.6998072,-0.4695983,-1.2659999,0.67289996,0.0207,0.26569998,-9.802899,-0.0501,wlk
-0.7936012,0.75319684,-0.48834312,-1.2806,0.38239998,0.0611,0.3685,-9.7968,-0.2377,wlk
-0.6101496,0.6948679,-0.50014156,-1.2695,-0.118499994,0.115499996,0.4752,-9.786099,-0.4195,wlk
-0.45036477,0.6128549,-0.45383796,-1.235,-0.3705,0.9514,0.58779997,-9.7694,-0.618,wlk
-0.4251622,0.6717598,-0.35615188,-1.0374,-0.24069999,1.5949999,0.6746,-9.7521,-0.78099996,wlk
-0.39105847,0.7196342,-0.25651103,-0.7703,0.0787,1.7011,0.7703,-9.728499,-0.96559995,wlk
-0.27492425,0.85020226,-0.21619393,-0.91279995,-0.29569998,1.5652,0.8833,-9.6972,-1.1632,wlk
-0.03499385,1.0480528,-0.25748843,-0.9715,-0.6181,1.3594999,0.9813,-9.669,-1.3105,wlk
0.39008108,0.9387602,-0.18757053,-1.6164,-1.1307,0.8892,1.0967,-9.6369,-1.4482,wlk
0.9373989,0.6919358,-0.008185594,-1.9905,-1.9383999,0.275,1.2256,-9.6039,-1.5597,wlk
1.7260609,0.3994186,0.1953198,-1.8508999,-2.2951,0.68189996,1.3213999,-9.5806,-1.6233,wlk
2.5490708,0.23598596,0.3384717,-1.3133999,-1.8187,1.9509,1.4115,-9.5569,-1.6861,wlk
2.9054322,-0.08693485,0.47862163,-0.70019996,-2.1924,3.3769999,1.4847,-9.5362,-1.7393,wlk
3.108536,-0.32033774,0.6621255,-1.359,-3.1302,3.6574998,1.5552,-9.5203,-1.7648,wlk
2.7353323,-0.18825121,0.9171356,-3.1109998,-4.7181,3.4332,1.64,-9.5112,-1.7366999,wlk
2.3603485,0.4175875,1.2173846,-3.9092999,-4.8082,4.3645,1.7126,-9.5192995,-1.6186,wlk
2.228192,0.14405948,1.4335437,-3.6239998,-4.0367,4.7096,1.7313,-9.5454,-1.4341999,wlk
2.2415438,-0.2208365,1.417312,-1.7315999,-1.4067,1.931,1.7020999,-9.5963,-1.0877,wlk
2.1203132,-0.14856243,1.2323945,0.4558,0.7503,0.40919998,1.6329,-9.654799,-0.5367,wlk
2.1341188,-0.2753955,1.0578266,0.7669,0.9558,-0.82189995,1.5474,-9.6837,-0.0311,wlk
2.1932507,-0.73073447,1.0552958,0.081199996,-2.2084,-1.1324999,1.4190999,-9.686999,0.56369996,wlk
2.1989403,-0.8536231,1.053376,0.96209997,-5.7124,-0.1063,1.2344999,-9.6643,1.1164,wlk
2.0665746,-1.1210773,0.92937034,2.0504,-6.2957997,-1.0497,0.9993,-9.630099,1.5596,wlk
1.9012744,-1.2826076,0.7915243,2.9988,-3.1829998,-1.5893999,0.71779996,-9.575399,1.9914,wlk
1.6216378,-1.475257,0.68704885,2.9032998,-1.3137,-2.5969,0.4308,-9.4833,2.4596,wlk
1.2010658,-1.708241,0.57409114,1.8116,-1.0444,-2.8195999,0.22809999,-9.3897,2.8195999,wlk
0.61877155,-1.791598,0.49375364,0.30589998,-1.4843,-2.0600998,0.047,-9.2637,3.2173,wlk
-0.0073827426,-1.6717287,0.39610246,1.1603,-0.8763,-2.4253,-0.110999994,-9.0969,3.6608999,wlk
-0.55401987,-1.436214,0.3175452,1.8607,0.2826,-3.2064,-0.22299999,-8.9418,4.0203,wlk
-1.0927331,-1.3187534,0.23734732,1.7641,1.4966999,-3.8521998,-0.2931,-8.7634,4.3915997,wlk
-1.5735714,-1.3013698,0.06628761,1.4715999,2.2319999,-5.0364,-0.3145,-8.5671,4.7618,wlk
-1.7217324,-1.1476761,-0.20366247,1.1915,2.9687,-5.3012,-0.2893,-8.4212,5.0168,wlk
-1.3710783,-1.0760479,-0.35020033,0.95659995,3.5467,-5.4514,-0.2015,-8.283299,5.2455,wlk
-0.82960737,-1.3823357,-0.2633353,1.0045999,3.9415,-4.9788,-0.092599995,-8.217199,5.3515,wlk
-0.31979668,-1.2946329,-0.12365658,1.2251999,4.3448997,-4.1243997,0.0103,-8.2185,5.3501997,wlk
0.084404126,-1.1131011,-0.0028972465,1.1933,4.4637,-2.7845,0.1109,-8.2785,5.2558,wlk
0.28834584,-1.0781248,0.18146189,1.1259,4.0203,0.0892,0.2175,-8.4039,5.0494,wlk
0.17484708,-0.7368082,0.4399626,1.1676999,2.1694999,3.4345,0.32279998,-8.543799,4.803,wlk
-0.22474605,-0.16947147,0.6491752,0.6532,-1.2120999,4.2407,0.46469998,-8.7023,4.4969997,wlk
-0.7653443,0.32948324,0.5400921,0.3114,-4.0085998,4.1689997,0.62009996,-8.818399,4.245,wlk
-0.6417925,0.098401666,0.10857693,0.4734,-4.463,4.4725,0.7818,-8.8838,4.0787997,wlk
0.16362461,0.124756135,0.08522443,1.1313,-2.9387999,3.1587,0.9084,-8.907499,4.0,wlk
-0.5046445,0.8876395,0.1434486,0.218,-0.9058,2.4785,0.99789995,-8.9007,3.9938,wlk
-1.1997743,0.72743577,-0.20251055,-1.3952999,0.71239996,1.8413,1.0521,-8.8813,4.023,wlk
-1.2066159,0.53044045,-0.51150364,-0.53319997,0.7761,0.58019996,1.0332999,-8.8764,4.0387,wlk
-1.4286567,0.5690122,-0.32244956,2.6771998,-2.0760999,-1.0632,0.93149996,-8.9072,3.9954,wlk
-1.2531813,0.20095721,-0.09410815,3.5156,-4.6837997,1.6176,0.80899996,-8.9768,3.8641999,wlk
-0.99967223,-0.44423866,-0.13398893,0.6889,-3.8683,0.25079998,0.782,-9.0274,3.7501998,wlk
-1.0429913,-0.71897095,-0.2398606,1.2923,2.4557,-5.5959,0.7572,-9.0163,3.7817,wlk
-1.1235033,-0.45944047,-0.16798794,4.4344997,5.0845,-3.3892999,0.6648,-9.0562,3.7031,wlk
-0.991539,-0.60903263,-0.0821701,-0.3159,0.9905,-2.3372,0.6493,-9.1399,3.4943,wlk
-0.9224589,-0.5284333,-0.017400933,-5.6791997,-3.3966,-6.987,0.7073,-9.2147,3.2800999,wlk
-0.9662317,-0.16538739,-0.029391345,-3.6044998,-3.1444,-6.4855,0.73109996,-9.300099,3.0237,wlk
-1.0043323,0.06394886,-0.13756685,-0.3748,-0.6929,-4.1914,0.73759997,-9.3784,2.7694,wlk
-0.9805609,0.036250487,-0.27000242,-0.4581,0.1282,-2.9471998,0.7818,-9.4249,2.5942,wlk
-0.944642,-0.04337143,-0.39933133,-0.7452,-0.6475,-2.1597,0.86289996,-9.472899,2.3853,wlk
-0.92317444,-0.19997983,-0.467085,-0.3175,-0.8544,-2.0656,0.91569996,-9.521,2.1636999,wlk
-0.8749161,-0.44587925,-0.51431364,0.3182,-0.1873,-1.0903,0.9565,-9.5604,1.9631,wlk
-0.82079345,-0.62816143,-0.52302283,1.0698999,0.46449998,-0.9327,0.97959995,-9.5945,1.7760999,wlk
-0.7404734,-0.7046592,-0.4344299,1.0881,0.7416,-0.87119997,0.99079996,-9.6264,1.5870999,wlk
-0.7104886,-0.716126,-0.32377604,0.45549998,0.8276,-0.8946,1.0153999,-9.6536,1.3948,wlk
-0.6669078,-0.6303955,-0.33730233,-0.4195,0.6612,-1.0687,1.0667,-9.6735,1.206,wlk
-0.63704515,-0.4926192,-0.37208673,-0.93899995,0.2615,-1.3654,1.145,-9.685699,1.0222,wlk
-0.5319415,-0.3339164,-0.4160516,-0.9352,0.0126,-1.27,1.2392,-9.6918,0.83849996,wlk
-0.39592794,-0.33897784,-0.47343802,-1.2475,-0.3798,-0.76519996,1.3456,-9.6916,0.6574,wlk
-0.24839526,-0.4843114,-0.4976108,-1.2285,-1.1206,0.2253,1.4541,-9.686299,0.4807,wlk
-0.15573573,-0.6203947,-0.4222126,-0.4847,-1.1277,1.6940999,1.5438,-9.6791,0.3162,wlk
-0.1661728,-0.6936462,-0.3562217,-0.41669998,-0.4093,2.6074998,1.6130999,-9.6719,0.1481,wlk
-0.14802137,-0.591143,-0.26248008,-1.421,0.0028,2.2691998,1.676,-9.6623,0.0058999998,wlk
-0.11046189,-0.42114794,-0.16444492,-1.8747,-0.0401,1.6736,1.7472,-9.6488,-0.1339,wlk
-0.06749188,-0.29770082,-0.113324225,-1.9339999,-0.33159998,0.7485,1.8262,-9.6319,-0.24839999,wlk
0.018640116,-0.19444713,-0.15535176,-2.3762,-0.6164,-0.1235,1.9152999,-9.6118,-0.3373,wlk
0.16629498,-0.11843804,-0.29307568,-2.2034,-0.7849,-0.655,2.0072,-9.5905,-0.40399998,wlk
0.40175733,-0.06489134,-0.4506789,-1.6219,-0.5387,-0.1389,2.0828,-9.5718,-0.4592,wlk
0.781733,-0.280073,-0.45656067,-1.5459,-0.5456,0.1182,2.1441,-9.5552,-0.5203,wlk
1.2193394,-0.6633124,-0.29782298,-1.3542,-0.8724,0.1819,2.1878,-9.5422,-0.5742,wlk
1.8608003,-1.1331725,-0.026912976,-0.8903,-1.234,0.76089996,2.2141,-9.5336,-0.6138,wlk
2.4127955,-1.5393629,0.22656119,-0.9375,-1.5045999,1.4539,2.2319999,-9.527699,-0.63989997,wlk
2.7988625,-1.7243155,0.29537952,-1.6609,-1.9625,2.0277998,2.2591,-9.521,-0.6451,wlk
3.2747786,-1.7531657,0.40407863,-3.1371,-3.1604,2.3056,2.3134,-9.5097,-0.6189,wlk
3.192626,-1.702848,0.64156556,-5.0460997,-4.6380997,2.3009999,2.3983,-9.4931,-0.5456,wlk
2.5773277,-1.5043342,0.8844805,-6.9737,-4.7412,2.8625998,2.4822,-9.4783,-0.4109,wlk
2.2605853,-1.3768378,1.299991,-7.5065,-4.0817,1.9587,2.5345,-9.471,-0.2131,wlk
2.126195,-1.5875689,1.614639,-4.5779,-2.0604,0.5457,2.5381,-9.472099,0.0818,wlk
1.903264,-1.8799291,1.7272128,-0.5128,-0.4734,0.94089997,2.5035,-9.4704,0.4613,wlk
1.629038,-1.8673452,1.6826719,0.4021,0.1501,0.90889996,2.4712,-9.4468,0.9052,wlk
1.5326958,-2.0303938,1.6791987,-1.3549,-0.9145,-3.1759999,2.4336,-9.3824,1.4892,wlk
1.4535625,-2.1173985,1.78055,-3.5454,-3.3098,-5.0418997,2.3783998,-9.3112,1.9527999,wlk
1.2907932,-2.2397287,1.8627375,-4.2699,-5.6942,-4.5871,2.2791998,-9.2411995,2.3609998,wlk
1.1349876,-2.5594556,1.9330394,-2.8548,-5.8598,-4.1784,2.1095,-9.183499,2.7172,wlk
0.91996306,-2.9663615,2.083766,-1.9052999,-3.8776999,-4.2,1.9052999,-9.1258,3.0428,wlk
0.6358758,-3.2955482,2.203356,-0.8084,-1.2003,-4.5666,1.7105999,-9.0671,3.3212,wlk
0.4012861,-3.5183742,2.2592413,-1.1817,-0.944,-3.7512999,1.5347999,-9.0097,3.5551,wlk
0.24022712,-3.5518847,2.164313,-1.6859,-0.5071,-4.036,1.3819,-8.9464,3.7712,wlk
0.05677556,-3.3580134,1.9789416,-1.7285999,-0.5144,-4.6517997,1.2285,-8.880199,3.9750998,wlk
-0.039357174,-3.0470831,1.791022,-1.9045,-0.99799997,-5.6131,1.0807999,-8.8183,4.1519,wlk
-0.066217795,-2.7320337,1.5835372,-2.2909,-1.5547,-5.8094997,0.9572,-8.7618,4.2992997,wlk
-0.1780934,-2.4252222,1.389125,-1.8317,-1.4697,-6.0442,0.85109997,-8.719399,4.4065,wlk
-0.30024898,-2.1193008,1.1409566,-0.9076,-0.8163,-5.5587997,0.7507,-8.6961,4.4702997,wlk
-0.4222475,-2.0020149,0.88177526,0.4567,-0.26049998,-4.6447,0.6807,-8.6928,4.4878,wlk
-0.5423436,-1.9713494,0.67392397,1.505,0.059899997,-3.7085,0.6229,-8.6995,4.4832,wlk
-0.6839596,-1.9781387,0.49155453,2.839,0.39409998,-2.9691,0.5736,-8.719999,4.4498997,wlk
-0.72270596,-2.098392,0.41411427,3.1466,0.8587,-2.1734,0.5308,-8.7432995,4.4094,wlk
-0.5809154,-2.277672,0.43441245,2.631,1.2317,-1.6669999,0.49719998,-8.7632,4.3736,wlk
-0.31487486,-2.3466825,0.5652074,2.2066,1.6262,-1.4599,0.46069998,-8.7948,4.3136997,wlk
-0.098663464,-2.1542075,0.7798131,1.3123,1.7371,-1.4930999,0.443,-8.8273,4.2488,wlk
-0.05274385,-2.0068493,0.95448565,0.6813,1.5591999,-1.0086,0.45619997,-8.875,4.1468,wlk
-0.11072369,-2.0076172,1.0359751,0.0026,0.8059,-0.0401,0.4974,-8.925799,4.0313997,wlk
-0.33871606,-2.0646896,1.0145774,-1.0694,-0.4644,1.3245,0.5595,-8.9793,3.9023,wlk
-0.5908463,-1.9686965,0.78431606,-2.0281,-1.6495999,2.2057,0.6454,-9.039599,3.7468,wlk
-0.6138323,-1.6794256,0.37241834,-3.1759999,-2.6599998,2.6562998,0.7342,-9.0883,3.6100998,wlk
-0.1428552,-1.485153,0.23307127,-3.3973,-2.5307999,2.0337,0.7985,-9.1194,3.5168,wlk
0.59056705,-0.6328215,0.3253643,-2.8855,-1.2854999,1.5371,0.80649996,-9.1388,3.4642,wlk
0.18280579,0.45963246,0.1966288,-2.4568,0.18439999,0.8135,0.7701,-9.157499,3.4229,wlk
-0.81093234,-0.12308062,-0.3262195,-1.5795,1.0310999,-0.47,0.7165,-9.1804,3.3727,wlk
-1.1092963,-0.55114007,-0.54084265,0.49969998,-0.5405,-0.2908,0.66719997,-9.217,3.2818,wlk
-1.3876764,0.2640683,-0.19872318,3.1462998,-4.7777,0.1874,0.64879996,-9.2653,3.1467,wlk
-1.1171678,0.26145032,-0.062063906,3.3474,-5.8234997,2.7068,0.68299997,-9.3081,3.0103,wlk
-0.7440862,-0.54784137,0.06595599,2.2626,-0.34939998,2.8818998,0.7283,-9.3199,2.9628,wlk
-0.7591659,-1.3018411,-0.039008107,4.7563,6.0723996,-3.8971999,0.70589995,-9.289,3.0635998,wlk
-0.9574178,-1.2539318,-0.24453808,6.2432,7.0934997,-4.7611,0.641,-9.2803,3.1037998,wlk
-0.9154601,-1.0760653,-0.41858232,-0.6895,0.26369998,-3.5591998,0.70919997,-9.325,2.9512,wlk
-0.8800997,-0.87571895,-0.50745445,-7.2846,-5.7125998,-4.0689,0.84169996,-9.3797,2.7352,wlk
-0.9797755,-0.56445694,-0.5164778,-5.2881,-4.6433997,-5.8127,0.8653,-9.4487,2.4784,wlk
-1.1172202,-0.45450118,-0.52946305,-1.3452,-1.1198,-4.0266,0.8646,-9.5007,2.2712,wlk
-1.1469606,-0.6227335,-0.54894096,1.5852,1.4341999,-1.7278,0.8761,-9.5345,2.1201,wlk
-1.1365933,-0.91832244,-0.52651346,0.8677,1.1212,-0.5785,0.93659997,-9.5647,1.9514999,wlk
-1.1651818,-1.0105107,-0.52729887,0.84319997,0.25939998,-0.3606,1.0297999,-9.5953,1.7434,wlk
-1.18363,-1.025381,-0.56518996,0.5509,-0.1511,-0.3084,1.1456,-9.6163,1.5440999,wlk
-1.0766238,-1.0598512,-0.58554053,0.114,0.1955,-0.8926,1.2686,-9.629499,1.3535,wlk
-0.88994336,-1.104008,-0.5269149,-0.8527,0.55939996,-1.6008999,1.3823,-9.6404,1.1498,wlk
-0.65371305,-0.95055866,-0.39214057,-1.9448999,0.5281,-1.3722999,1.4937999,-9.6483,0.9212,wlk
-0.5531472,-0.6245661,-0.23022638,-2.4041,0.1568,-1.416,1.6097,-9.6496,0.6805,wlk
-0.5620484,-0.1622109,-0.12107349,-1.6148,0.2785,-0.76839995,1.7324,-9.6438,0.4055,wlk
-0.6183003,0.1447227,-0.11632619,-0.3189,0.3461,-0.2985,1.8291999,-9.632999,0.17099999,wlk
-0.6043726,0.0017627826,-0.26040313,0.0814,-0.1744,0.6347,1.9387,-9.612599,-0.0954,wlk
-0.4998972,-0.25755823,-0.44502404,-0.5362,-1.5558,1.7663,2.0465,-9.584499,-0.3443,wlk
-0.41092032,-0.36229545,-0.5789606,-1.6459999,-2.4422998,3.3578,2.1461,-9.5511,-0.5826,wlk
-0.33173472,-0.22029546,-0.5876349,-2.3493,-1.6710999,3.5367,2.2022,-9.528,-0.732,wlk
-0.23040092,-0.12576842,-0.53452456,-2.8931,-0.4741,2.5518,2.236,-9.509,-0.86499995,wlk
-0.16550957,-0.20329595,-0.44490188,-2.1678,0.36319998,0.6163,2.256,-9.493199,-0.9791,wlk
-0.12990485,-0.35250413,-0.36562902,-0.7022,0.4922,-0.55759996,2.2811,-9.4751,-1.0898,wlk
-0.029880038,-0.3994535,-0.34869933,0.0819,-0.014099999,-0.1786,2.3304,-9.4493,-1.2041,wlk
0.23226842,-0.38866737,-0.35027012,-0.0739,-0.7048,0.5162,2.4078999,-9.4156,-1.3105999,wlk
0.62741095,-0.5892406,-0.32424727,-1.2221999,-1.4111999,1.3664,2.5068,-9.375999,-1.4056,wlk
1.1138691,-0.80768603,-0.22218041,-2.3358,-1.8725,0.73359996,2.6104,-9.3364,-1.4789,wlk
1.919548,-0.9737716,-0.10019935,-3.1083,-2.2609,0.2243,2.7062,-9.301,-1.5285,wlk
2.6415732,-1.3436418,0.10236356,-3.1453998,-2.3885,1.0899,2.7826,-9.2715,-1.5704,wlk
2.9207735,-1.6694249,0.40617302,-3.5549,-2.5995998,2.7714999,2.839,-9.246799,-1.6143,wlk
3.104487,-1.6862149,0.7084117,-4.1653,-3.356,3.4764998,2.8904,-9.2258,-1.6427,wlk
3.0889535,-1.3183868,0.9921499,-4.5898,-4.6338997,3.5054,2.9422998,-9.212999,-1.6225,wlk
2.6366165,-0.8086285,1.164152,-4.9447,-4.2409997,4.8466,2.9833999,-9.2136,-1.5417999,wlk
2.3832471,-0.9165422,1.3819343,-5.5407,-3.7508998,4.003,3.0007,-9.233,-1.3845999,wlk
2.3266287,-1.1446393,1.6272403,-4.613,-2.5684,0.60679996,2.995,-9.2779,-1.0579,wlk
2.0904157,-1.2878784,1.7139482,-1.7013999,-0.79539996,-0.3225,2.9566998,-9.3249,-0.6875,wlk
1.8921638,-1.4265449,1.7593093,0.1257,0.1672,0.2383,2.8652,-9.3757,-0.2383,wlk
1.8100461,-1.487806,1.7394824,-0.2708,-1.3722999,-0.7804,2.7322,-9.4149,0.2509,wlk
1.6969488,-1.7536545,1.8789866,-1.012,-3.783,-2.247,2.5418,-9.436299,0.8152,wlk
1.6054586,-2.0501335,1.9758348,-2.1529,-4.9765,-2.8946998,2.3588998,-9.439199,1.2276,wlk
1.4398093,-2.4047844,1.9212061,-2.062,-4.2788,-2.3639998,2.1011999,-9.4307995,1.6775,wlk
1.2211021,-2.6038568,1.9212759,-1.324,-2.8764,-3.2179,1.8634,-9.4112,2.0312998,wlk
0.9248325,-2.711753,1.8975569,-1.2548,-2.2523,-2.7326999,1.5981,-9.3783,2.3796,wlk
0.5403888,-2.6742458,1.7782985,-1.1787,-1.4784,-2.9882,1.316,-9.3285,2.7233999,wlk
0.1023112,-2.3841896,1.5544251,-1.6897,-1.1022,-3.4257,1.1013,-9.2731,2.9942,wlk
-0.23415338,-2.0616527,1.3051049,-0.7953,-0.1616,-3.4401,0.8639,-9.2037,3.2733998,wlk
-0.42149702,-1.717404,0.9844879,-0.6983,0.014599999,-4.3578997,0.6198,-9.1151,3.5635998,wlk
-0.57121134,-1.5275122,0.68642056,-0.5334,0.29119998,-4.4227,0.46469998,-9.0388,3.7754,wlk
-0.73846626,-1.4309256,0.3423114,0.454,0.9471,-4.5436,0.3207,-8.9592,3.9749,wlk
-0.8996649,-1.4682058,-0.028693212,1.6028,1.8333,-4.1651,0.2015,-8.8941,4.1259,wlk
-0.85632837,-1.6333663,-0.27630308,2.5683,2.4703999,-3.5760999,0.108799994,-8.8546,4.2135997,wlk
-0.6443581,-1.8247068,-0.3506541,3.4464,3.0033998,-2.9043999,0.0349,-8.8481,4.2283,wlk
-0.37803832,-1.9394099,-0.2656042,3.9905,3.5742998,-2.329,-0.0286,-8.8699,4.1825,wlk
-0.09756391,-1.4813133,-0.08450884,3.6209998,3.8339,-1.8634,-0.061199997,-8.9039,4.1091,wlk
0.2467721,-1.0142108,0.22181389,3.6588,3.669,-0.979,-0.059699997,-8.945,4.0190997,wlk
0.26965338,-0.9413259,0.59803706,3.3030999,2.4915,0.192,-0.007999999,-9.003099,3.8874998,wlk
0.035639625,-0.79253656,0.84599596,1.7936,0.3338,1.8074,0.108799994,-9.0716,3.7233999,wlk
-0.37062067,-0.62819636,0.73860586,0.3886,-1.3209,2.8325999,0.27809998,-9.1329,3.5612,wlk
-0.67177725,-0.867673,0.11606439,-1.2054,-2.1218998,4.347,0.46989998,-9.1753,3.4296,wlk
0.035482544,-0.8392765,-0.28789207,-2.8369,-3.4624,6.0955,0.65,-9.1979,3.3384,wlk
-0.18825121,0.02453933,-0.18193312,-3.7157,-4.4867997,4.4965997,0.7639,-9.203199,3.2996,wlk
-1.3780247,1.208274,-0.047472954,-3.3597,-2.5972,2.6331,0.79039997,-9.1902,3.3292,wlk
-1.5057304,0.909718,-0.33707544,-1.6457,-0.1937,0.4797,0.7435,-9.181399,3.3644,wlk
-1.208815,0.5856976,-0.47342056,3.4675,-0.1452,-2.2126,0.6414,-9.1907,3.36,wlk
-1.3898929,0.42149702,-0.18210766,7.8178997,-1.7004,-1.4308,0.5471,-9.2241,3.2842999,wlk
-1.502519,0.32744122,0.0011519173,5.2632,-2.7935,4.2046,0.5815,-9.2685995,3.1503,wlk
-1.4721503,0.22003366,-0.092886426,0.7538,0.3583,-1.8517,0.6877,-9.2627,3.1462,wlk
-1.3958445,-0.066968285,-0.17905332,2.8888,3.9273,-6.0341,0.71989995,-9.2719,3.1116998,wlk
-1.2556074,-0.34175292,-0.16264723,3.1092,3.4011,-2.0479,0.6565,-9.3537,2.8716998,wlk
-1.1863701,-0.28660053,-0.10908308,-2.1213999,-1.8458999,-3.6599998,0.66999996,-9.4316,2.6009,wlk
-1.1938226,0.12705997,-0.042847835,-4.4962,-3.6164,-6.3129,0.73039997,-9.4852,2.3804,wlk
-1.1623719,0.57431805,-0.030229103,-1.8935,-0.9479,-3.7696,0.7461,-9.5451,2.1220999,wlk
-1.1097152,0.9548696,-0.051923543,0.3065,1.1415,-1.8883,0.73289996,-9.6046,1.8391999,wlk
-0.9844355,1.098929,-0.114057265,-0.037299998,0.081999995,-2.4808,0.74329996,-9.653299,1.559,wlk
-0.8769756,0.9654812,-0.22301817,0.0634,-0.6752,-1.5919,0.77989995,-9.6903,1.2879,wlk
-0.8030434,0.6662969,-0.34714597,0.3965,-0.0308,-0.7348,0.81939995,-9.7169,1.0388,wlk
-0.7843335,0.40168753,-0.34297466,1.0734999,0.48119998,0.1519,0.84849995,-9.7387,0.77959996,wlk
-0.77176714,0.3811799,-0.24377014,1.3029,0.63229996,0.6339,0.8545,-9.7525,0.5722,wlk
-0.74358004,0.4873134,-0.107302845,0.508,0.368,0.72349995,0.8551,-9.7628,0.3552,wlk
-0.72874475,0.5456772,-0.04415683,-0.0954,0.3728,0.31579998,0.8603,-9.7676,0.1548,wlk
-0.73565626,0.45858526,-0.07192502,-0.3418,0.3525,-0.2562,0.8811,-9.7669,-0.018199999,wlk
-0.7533539,0.26457447,-0.14884168,-0.63229996,-0.3592,0.113199994,0.92649996,-9.7612,-0.17199999,wlk
-0.77721256,0.16587609,-0.24167573,-1.2793,-0.81229997,0.8892,1.0047,-9.7494,-0.3302,wlk
-0.78855723,0.21580996,-0.3231477,-2.2052999,-0.8046,1.5095999,1.0677,-9.7374,-0.4603,wlk
-0.735185,0.35452873,-0.42320743,-2.3451,-0.4847,1.6808,1.1192,-9.7239,-0.60209996,wlk
-0.6352126,0.43577382,-0.4479213,-1.6075,0.0814,1.6084,1.1466,-9.7115,-0.7356,wlk
-0.52349406,0.4935093,-0.42229986,-0.74219996,0.7061,1.2271999,1.1639,-9.6988,-0.86439997,wlk
-0.4426853,0.6566976,-0.35246924,-0.1296,0.7872,1.0583999,1.1887,-9.6818,-1.0093,wlk
-0.42570326,0.805452,-0.25467846,0.2771,0.6006,1.3349999,1.2232,-9.662,-1.1487,wlk
-0.40338048,0.8617738,-0.14913839,0.3884,0.45069999,1.5349,1.2688,-9.6396,-1.2799,wlk
-0.26296875,0.88057095,-0.14402457,0.026099999,0.048299998,1.5143,1.3369,-9.609799,-1.4261,wlk
-0.028850293,0.86200064,-0.21073106,-0.3401,-0.45589998,1.0081,1.4287,-9.5762,-1.5573,wlk
0.34166566,0.79021525,-0.23453735,-0.5183,-0.9015,1.0284,1.5284,-9.542399,-1.6658,wlk
0.8520523,0.50817007,-0.0718203,-1.0764999,-1.4623,1.0634999,1.6257,-9.5112,-1.75,wlk
1.4879979,0.08964011,0.24806364,-1.6376,-2.3234,1.3806,1.716,-9.4837,-1.8120999,wlk
2.2977085,-0.31801644,0.50836205,-1.686,-2.8186998,2.3744,1.7939,-9.4591,-1.8643999,wlk
2.6962194,-0.839259,0.66676813,-1.8349999,-2.3883,3.4782,1.8546,-9.438499,-1.9092,wlk
3.0590212,-0.97815233,0.7324449,-2.6706,-2.9333,4.1026,1.9154999,-9.422999,-1.9254999,wlk
3.0778008,-0.8408647,0.8099026,-4.0769997,-4.1587,4.5843,1.9882,-9.4136,-1.8973,wlk
2.626354,-0.24565509,0.9865124,-5.2290998,-4.7732997,4.4487,2.0616,-9.4168,-1.8009,wlk
2.26631,0.18554595,1.3081417,-5.6131,-4.3059,4.4923997,2.0925,-9.4429,-1.6191,wlk
2.1385345,0.039671335,1.5839038,-3.882,-2.5256999,2.167,2.0481,-9.4972,-1.3334,wlk
1.9520111,-0.25799456,1.5566766,-0.71819997,-0.4631,0.5255,1.9440999,-9.568999,-0.9079,wlk
1.9058995,-0.5370902,1.4148861,1.4999,1.0685999,1.8140999,1.8047999,-9.6299,-0.42159998,wlk
2.016117,-0.6967529,1.1861432,1.3597,-0.2994,-0.9292,1.6607,-9.664,0.1349,wlk
1.97018,-0.903906,1.0819645,0.0429,-4.4694,-0.7211,1.4966999,-9.661799,0.7603,wlk
1.8406765,-1.2985599,0.98918283,0.0726,-6.8150997,-0.877,1.3296,-9.6403,1.2105,wlk
1.6278337,-1.5034964,0.8793143,1.0751,-5.5933,-1.2393999,1.0725,-9.6069,1.6513,wlk
1.3472545,-1.7084854,0.8744274,2.2431998,-2.7015998,-2.4248,0.76739997,-9.5566,2.062,wlk
1.0038086,-1.8179001,0.91170764,1.6258999,-1.2301999,-2.1167998,0.4824,-9.488299,2.4306,wlk
0.5587148,-1.7796599,0.86952305,0.4922,-0.015199999,-1.4531,0.24319999,-9.399099,2.7868,wlk
0.07597418,-1.518576,0.76073664,-0.24929999,0.85889995,-2.475,0.063,-9.2828,3.1615,wlk
-0.3784223,-1.0893298,0.62812656,0.3211,1.5800999,-2.858,-0.076,-9.1509,3.5249,wlk
-0.7638782,-0.7741408,0.44919538,0.6599,2.0498,-3.2150998,-0.15969999,-9.0125,3.8623998,wlk
-1.0977074,-0.6005329,0.20169024,1.1967,2.122,-3.9728,-0.1964,-8.878799,4.1591,wlk
-1.4487978,-0.49054223,-0.07328638,1.8225,2.2777,-4.286,-0.20439999,-8.7599,4.4037,wlk
-1.685412,-0.5690646,-0.3451912,2.3083,2.7721,-4.0957,-0.1998,-8.6659,4.586,wlk
-1.4733022,-0.83692026,-0.5726251,2.3032,3.2661,-3.7675998,-0.185,-8.6107,4.6893997,wlk
-0.79499745,-0.9093689,-0.51721084,2.3699,3.7268999,-3.5017998,-0.1732,-8.6008,4.7079997,wlk
-0.14618878,-0.8155051,-0.28670523,2.7293,4.3289,-3.1657999,-0.1796,-8.634,4.6466,wlk
0.4551295,-0.31918582,0.08066912,2.4615998,4.6619997,-2.1733,-0.1865,-8.7023,4.5171,wlk
0.68662995,-0.42950806,0.3399203,2.4046,4.0327,-0.64959997,-0.1687,-8.798699,4.3271,wlk
0.41751766,-0.6998072,0.4855855,2.419,1.9677,1.5277,-0.11449999,-8.9206,4.0717998,wlk
-0.13733996,-0.40463713,0.49099603,1.429,-1.0152999,4.6847997,0.0026999998,-9.0658,3.7389998,wlk
-0.61182517,-0.17001252,0.299865,-0.4551,-3.9111998,6.7517,0.1511,-9.160999,3.4961998,wlk
-0.59308034,-0.36325538,-0.11861257,-1.8185999,-5.5361,7.8532,0.3084,-9.212999,3.3458998,wlk
0.35030502,0.1322436,0.033649947,-1.6708,-5.048,7.4642997,0.4156,-9.2206,3.3130999,wlk
-0.6403089,1.8845018,0.3551745,-0.7654,-2.3222,3.3232,0.42209998,-9.1907,3.3943,wlk
-1.5503585,1.7527469,0.044732787,-1.3406999,0.84959996,1.7003,0.3895,-9.146,3.5167,wlk
-1.3098521,0.9907187,-0.46561894,-0.131,1.8112999,0.5826,0.34669998,-9.1173,3.5949998,wlk
-1.4824653,1.3747958,-0.38954005,4.4247,-0.8639,-0.5006,0.2922,-9.129,3.5700998,wlk
-1.61518,1.4082538,-0.085748024,5.311,-4.7125,1.6812999,0.24929999,-9.1736,3.4573,wlk
-1.6689361,1.3989162,0.13924237,0.96919996,-4.2806,3.0182,0.2958,-9.2133,3.3463,wlk
-1.4743494,0.8609884,0.0758171,0.98429996,2.8645,-7.0007997,0.2807,-9.189799,3.4115,wlk
-1.2543507,0.40650463,-0.13285446,7.3936,7.2825,-5.7816,0.0887,-9.234099,3.3005,wlk
-1.3172698,0.4897394,-0.28389525,3.5115,3.3597,-3.0725,-0.0301,-9.332,3.0137,wlk
-1.3632592,0.6909409,-0.34367278,-2.1866,-2.8209,-3.5328,-0.0001,-9.4079,2.7679,wlk
-1.2767433,0.86524695,-0.32735395,-2.8848999,-4.9716,-4.5387,0.0016999999,-9.4931,2.4596999,wlk
-1.2401437,1.0830466,-0.32548645,-1.4776,-1.8443999,-3.8395,-0.0423,-9.560599,2.1822,wlk
-1.2557294,1.2474915,-0.34358552,0.23349999,0.5861,-2.3205,-0.1256,-9.6278,1.8596,wlk
-1.2186936,1.3258219,-0.4079358,0.88,1.0626999,-1.2689999,-0.1739,-9.682799,1.5436,wlk
-1.0868515,1.115981,-0.40006438,1.2595999,1.3896999,-0.8232,-0.1612,-9.7156,1.3233,wlk
-0.9155474,0.8395906,-0.35705945,1.5494,0.51,-0.46739998,-0.117599994,-9.7478,1.0655999,wlk
-0.79911643,0.67685616,-0.343027,1.505,-0.0033,-0.2392,-0.0634,-9.7739,0.79819995,wlk
-0.7860614,0.43273693,-0.3354523,1.0309,0.269,0.0111,-0.011,-9.7913,0.5478,wlk
-0.8290314,0.22820179,-0.340409,0.26049998,0.5639,0.028199999,0.043399997,-9.8018,0.30519998,wlk
-0.9073967,0.27462757,-0.3349636,-0.68479997,0.5974,0.17449999,0.1063,-9.8057995,0.060799997,wlk
-0.9516408,0.37473965,-0.40269983,-1.8843,-0.0131,0.38009998,0.18779999,-9.8033,-0.1742,wlk
-0.9234188,0.39514256,-0.49876273,-2.3906,-0.1779,1.0978999,0.2724,-9.7954,-0.382,wlk
-0.8108451,0.37662458,-0.5763077,-1.6740999,0.105399996,1.4092,0.3502,-9.784599,-0.5561,wlk
-0.665878,0.41427135,-0.5771106,-1.2202,0.3574,1.1091,0.4258,-9.7718,-0.7071,wlk
-0.48570767,0.54942966,-0.5340882,-1.6063,-0.0894,1.5234,0.49809998,-9.7564,-0.85649997,wlk
-0.37566468,0.58234656,-0.45903903,-1.6867,0.1267,1.6335,0.56869996,-9.7373,-1.0157,wlk
-0.3502527,0.576936,-0.33037338,-0.7086,0.8774,1.0221,0.64,-9.7132,-1.1888,wlk
-0.25192082,0.6942396,-0.1908343,0.449,0.7005,0.90739995,0.7276,-9.6834,-1.3683,wlk
-0.06262241,0.9969844,-0.16072737,0.48819998,-0.44219998,1.4620999,0.83559996,-9.6487,-1.5406,wlk
0.3132866,1.0953686,-0.20472711,-0.43899998,-0.89059997,1.7881,0.9587,-9.6122,-1.6899999,wlk
0.85371035,0.7482401,-0.15109316,-1.4663999,-1.5632,1.162,1.084,-9.5771,-1.8093,wlk
1.6412902,0.35157913,0.017592918,-1.9247999,-2.5477,0.55399996,1.2186999,-9.543799,-1.8974999,wlk
2.399723,-0.04337143,0.2859722,-2.112,-2.5124,1.7917,1.3176,-9.5203,-1.9485999,wlk
2.8228955,-0.44724062,0.54649746,-1.619,-2.4665,3.6764,1.4032999,-9.497499,-1.9994999,wlk
3.123127,-0.6078284,0.75038683,-1.2909,-2.8156,4.9888997,1.4674,-9.4819,-2.0273,wlk
2.981162,-0.5496565,0.85678214,-2.5188,-3.48,4.5099,1.5381,-9.4745,-2.0091999,wlk
2.6369655,0.20359266,1.0453824,-3.8558,-4.6902,4.3472,1.6199,-9.4804,-1.9152,wlk
2.295614,0.4956386,1.2736715,-4.1078997,-4.5561,5.1018,1.6759,-9.506499,-1.7283,wlk
2.104169,0.092153385,1.424433,-3.2428,-3.2489,2.2273,1.6834999,-9.558499,-1.4035,wlk
2.015,-0.12164945,1.4012201,-0.68619996,-0.89809996,1.5133,1.6276,-9.6243,-0.94449997,wlk
2.0401154,-0.116273835,1.2379969,0.9759,0.1026,-0.6303,1.505,-9.6837,-0.3601,wlk
2.082876,-0.52873003,1.0744072,1.6473999,-1.569,-0.5028,1.3729999,-9.7085,0.16929999,wlk
2.0630314,-1.0008067,0.98389447,1.3968999,-5.4867,0.079799995,1.2116,-9.7037,0.7341,wlk
1.9382929,-1.449077,0.79295546,2.1822,-6.4670997,0.26029998,1.0049,-9.6746,1.2498,wlk
1.6928647,-1.4840186,0.692599,2.1682,-4.6394997,-1.5449,0.7443,-9.6291,1.7018,wlk
1.310306,-1.466129,0.7256904,2.1901999,-2.0742,-2.0383,0.4673,-9.566199,2.1069,wlk
0.79836595,-1.375267,0.7474198,1.7847999,-0.4707,-2.1959,0.2059,-9.4829,2.4901,wlk
0.20860176,-1.2127944,0.7001563,0.3577,0.479,-2.5894,-0.0438,-9.3639,2.9129999,wlk
-0.39184386,-0.9826029,0.59774035,0.23369999,1.4396,-3.2337,-0.1944,-9.2457,3.2631,wlk
-0.84243554,-0.75085807,0.43589598,0.8746,2.0667999,-3.0484998,-0.3058,-9.0982,3.6467,wlk
-1.1547273,-0.6166597,0.26145032,1.1127,2.1290998,-3.29,-0.338,-8.9447,4.0059,wlk
-1.3796654,-0.5797111,0.095294975,1.5044,2.1599998,-4.3458,-0.3374,-8.7991,4.3164,wlk
-1.5192044,-0.6446723,-0.04527384,2.0503,2.8135998,-4.5945,-0.3342,-8.677899,4.5552998,wlk
-1.460317,-0.7770031,-0.2245017,2.4542,3.5386999,-4.7123,-0.336,-8.599,4.7025,wlk
-0.9868964,-0.8376359,-0.31133184,2.303,4.2694,-4.4523997,-0.3416,-8.5745,4.7465997,wlk
-0.38018507,-0.7174176,-0.2355671,2.3718,4.6748,-3.6367998,-0.35169998,-8.6073,4.6861,wlk
0.12170181,-0.24823818,-0.06914994,2.1425,4.4063,-2.3883998,-0.3577,-8.682,4.5457997,wlk
0.56512016,0.16451474,0.10686651,1.7213999,3.6343,-0.7495,-0.34849998,-8.7828,4.3486,wlk
0.55047685,-0.3794346,0.20203932,1.5912,2.2008998,1.2164,-0.3163,-8.8988,4.1085,wlk
0.12489576,-0.49094367,0.23518312,1.1886,-0.13949999,3.7012,-0.257,-9.0198,3.84,wlk
-0.3898193,-0.39259437,0.18364355,-0.1257,-2.8938,6.0713997,-0.1586,-9.1291,3.5781999,wlk
-0.9605594,-0.18963002,-0.040701076,-0.9375,-4.6580997,6.8292,-0.042999998,-9.1986,3.399,wlk
-1.1399792,-0.17407914,-0.4834562,-0.77419996,-4.6521997,7.9584,0.048499998,-9.2241,3.329,wlk
-0.22785273,0.21643828,-0.27825785,0.5987,-3.1697998,5.0432,0.0779,-9.215899,3.3511999,wlk
-0.090425506,1.8456333,0.38597956,0.1294,-0.3838,2.3599,0.047,-9.1775,3.4554,wlk
-1.2635137,2.5645692,0.5327443,-0.3308,2.5784,1.0922999,0.036599997,-9.1391,3.5558999,wlk
-1.2316439,1.3157165,-0.17486453,1.1586,3.0101,-0.44259998,0.0279,-9.129399,3.5807,wlk
-1.2301255,0.87509066,-0.5126206,4.7332997,0.22049999,-0.86869997,0.022799999,-9.1544,3.5165,wlk
-1.4793236,1.4006093,-0.31740558,5.8896,-4.6953,1.0828,0.0433,-9.2202,3.3399,wlk
-1.5397993,1.3562255,-0.061086524,0.3854,-7.4467998,5.8346,0.1441,-9.293,3.1285,wlk
-1.4052519,1.1002904,0.03939208,-3.2519,-2.2164,-3.6067,0.18239999,-9.3063,3.0869,wlk
-1.1885692,0.5599365,-0.026005406,4.8378,6.2921,-8.5651,-0.0030999999,-9.3125,3.0734,wlk
-1.1634713,0.35990435,-0.16545722,7.1334996,7.1077,-3.8351998,-0.2786,-9.3926,2.8055,wlk
-1.2926432,0.61974895,-0.19078194,0.5482,0.7058,-3.2563999,-0.3129,-9.4532995,2.5895998,wlk
-1.2631471,0.9252863,-0.21912609,-2.7712998,-4.6535,-3.9399,-0.2588,-9.517,2.3511999,wlk
-1.1510097,1.1023848,-0.25324726,-1.9954,-3.9882998,-3.9736998,-0.26,-9.584,2.0614,wlk
-1.1132233,1.4016739,-0.30075514,-0.5726,-0.56549996,-2.6304998,-0.29999998,-9.6431,1.7577,wlk
-1.090726,1.5155392,-0.35580283,1.1082,0.71529996,-1.7634,-0.34329998,-9.6883,1.479,wlk
-1.0149788,1.3808347,-0.37494907,1.6872,0.8753,-1.0385,-0.35349998,-9.7209,1.2444,wlk
-0.94467694,1.2176116,-0.39029053,1.9279,0.8537,-0.1329,-0.3294,-9.7483,1.0155,wlk
-0.86205304,0.987612,-0.39753366,2.0978,0.70129997,0.1821,-0.3031,-9.7725,0.7592,wlk
-0.78087777,0.7019016,-0.44898593,1.6415,0.20019999,0.3813,-0.2686,-9.7911,0.4816,wlk
-0.79051197,0.49853584,-0.4762829,1.0846,0.3955,0.8736,-0.2314,-9.8,0.2737,wlk
-0.82264346,0.3242298,-0.43134066,-0.1073,0.5474,0.54829997,-0.177,-9.8049,0.049799997,wlk
-0.86406016,0.32213542,-0.3958232,-1.2161,0.4095,0.5038,-0.097899996,-9.804299,-0.19,wlk
-0.8791223,0.47144833,-0.4000818,-2.0737998,0.1792,0.91969997,-0.024799999,-9.7996,-0.3706,wlk
-0.8018217,0.5955063,-0.4129798,-1.5731,0.3371,0.96699995,0.0629,-9.7907,-0.5552,wlk
-0.6377782,0.55361843,-0.4142539,-0.97709996,0.3938,1.1728,0.1533,-9.7788,-0.72169995,wlk
-0.4323006,0.57480675,-0.38931313,-1.4781,0.2031,1.2538999,0.2522,-9.7645,-0.8714,wlk
-0.30799824,0.6756868,-0.29791024,-1.9041,-0.069699995,1.4933,0.35459998,-9.746699,-1.0225999,wlk
-0.32173398,0.7319562,-0.23233823,-1.5631,-0.2505,1.7057999,0.4549,-9.722799,-1.1958,wlk
-0.3898891,0.8990365,-0.13529792,-0.9237,-0.0286,1.5107,0.5315,-9.6995,-1.344,wlk
-0.19991001,1.1798775,-0.1700998,-0.2694,-0.0975,1.5774,0.6224,-9.6698,-1.5087999,wlk
0.12264428,1.2979316,-0.2780484,-0.19139999,-0.148,1.6556,0.72099996,-9.6389,-1.6556,wlk
0.57655203,1.1158588,-0.2677335,-1.055,-0.61759996,1.0931,0.8197,-9.6107,-1.7698,wlk
1.2184668,0.7054621,-0.14545573,-1.533,-1.5323,0.205,0.9152,-9.5883,-1.8427,wlk
2.0379686,0.22881266,0.06339036,-1.0842,-2.3456,0.76559997,1.0057,-9.5694,-1.8932999,wlk
2.535108,-0.33004177,0.34496433,-0.21779999,-2.6943998,3.1313999,1.0709,-9.554,-1.935,wlk
2.9619808,-0.53436744,0.53527504,-0.0042999997,-2.5656,4.5785,1.132,-9.5357,-1.9894999,wlk
3.0607665,-0.6044075,0.6413038,-1.4058,-3.1671999,4.5408,1.2195,-9.5225,-2.0009,wlk
2.843054,-0.13241813,0.7640528,-3.1962,-4.3262997,4.3136,1.3133,-9.520599,-1.9502,wlk
2.4034755,0.55642843,0.9998817,-3.9749,-4.5852,4.7574,1.4153999,-9.5363,-1.7958,wlk
2.1800559,0.5179614,1.1627907,-4.1095,-4.2676,3.1467998,1.4617,-9.5694,-1.5679,wlk
2.1551325,0.1356819,1.237229,-2.358,-1.925,1.1992999,1.4557999,-9.6271,-1.1699,wlk
2.029399,0.04553564,1.0956653,0.4409,0.2893,1.023,1.383,-9.6841,-0.6895,wlk
1.9693946,-0.28310984,0.872141,2.4426,0.5553,-0.5355,1.2642,-9.7245,-0.072399996,wlk
2.019346,-0.66301566,0.80419534,2.2684999,-2.7361,0.77529997,1.1539,-9.728,0.4504,wlk
1.8795451,-1.082872,0.684937,1.9541999,-5.6243997,0.5295,1.0073,-9.7032995,1.0002,wlk
1.6956048,-1.2315043,0.533425,2.0047998,-5.4795,-0.8777,0.7998,-9.661799,1.4758999,wlk
1.4155493,-1.2722229,0.47561967,2.0307,-2.9387,-1.4912,0.5582,-9.6039,1.9030999,wlk
1.0011907,-1.2759055,0.48778462,2.1947,-1.0967,-2.1794,0.3157,-9.5238,2.3167,wlk
0.47514844,-1.2214861,0.47774896,1.2389,-0.027999999,-2.3574,0.0849,-9.4157,2.7398999,wlk
-0.10859439,-1.035434,0.41100758,0.037499998,0.8204,-2.0519,-0.0473,-9.3129,3.0718,wlk
-0.70041806,-0.7578918,0.31998867,0.77099997,1.6632999,-3.0133,-0.163,-9.1654,3.484,wlk
-1.1612374,-0.4749041,0.20895082,1.283,2.1949,-2.6777,-0.2043,-9.0399,3.7956998,wlk
-1.4773688,-0.33393383,0.08133234,1.4284999,2.3235,-3.4185998,-0.20269999,-8.9037,4.105,wlk
-1.5883194,-0.41751766,-0.03286455,1.4022,2.6109,-4.1110997,-0.17639999,-8.7695,4.3856997,wlk
-1.3251238,-0.7055319,-0.14276794,1.5594,3.4415,-4.3978,-0.14729999,-8.6783,4.5646,wlk
-0.67203903,-0.91364497,-0.17451547,1.7484,4.2834997,-4.4846997,-0.1205,-8.6377,4.6415997,wlk
-0.051661745,-1.0147344,-0.019163715,1.7136999,4.8615,-4.0368,-0.095599994,-8.6468,4.6252,wlk
0.25167647,-0.42570326,0.11011282,1.5627999,4.7483,-2.6711,-0.081999995,-8.710199,4.505,wlk
0.4246735,0.112416655,0.13922492,1.5478,3.8892,-1.2524999,-0.076799996,-8.812099,4.3023,wlk
0.49509755,-0.5123763,0.16868608,1.5820999,2.6218,1.1733999,-0.062099997,-8.9471,4.0143,wlk
0.27502897,-1.1679045,0.29887018,1.5084,0.1047,4.3624997,-0.0276,-9.0582,3.7573,wlk
-0.22509511,-1.100622,0.3700796,0.097399995,-3.1722999,7.1439,0.049599998,-9.1545,3.5158,wlk
-0.78991854,-0.22684044,0.1656492,-1.9785999,-4.5776,6.9453998,0.14479999,-9.2006,3.3906999,wlk
-0.699336,-0.22968532,-0.32051226,-1.3742,-2.6914,7.1447997,0.217,-9.2039995,3.3776,wlk
0.57733744,0.1123643,-0.25501007,0.2057,-1.1291,4.5408,0.22569999,-9.1874,3.4220998,wlk
-0.46146506,2.1436307,0.11217231,-0.1433,-0.4323,2.3539,0.1924,-9.1585,3.5005,wlk
-1.7961707,2.1635275,-0.044767696,-1.0903,0.76879996,1.2455,0.1979,-9.124,3.5891,wlk
-1.4704224,1.09954,-0.58142155,0.3409,1.3582,0.602,0.2277,-9.1054,3.6344,wlk
-1.3842905,1.5365704,-0.4131718,5.2212996,-1.7796999,0.2899,0.2409,-9.125199,3.5835998,wlk
-1.6833526,1.6504357,0.034016468,7.4013996,-6.1910996,2.2154999,0.228,-9.1758995,3.4526,wlk
-1.698537,1.3821437,0.24471262,2.757,-5.3216,5.4639,0.3026,-9.221499,3.3228,wlk
-1.3995621,0.72022754,0.106569804,1.3153,3.0026999,-8.696,0.3419,-9.1809,3.4297998,wlk
-1.2639849,0.39430478,-0.13363986,7.6791997,9.0755,-7.2493997,0.1758,-9.2127,3.3560998,wlk
-1.3339202,0.46746898,-0.23605578,2.5453,4.5819,-2.6415,0.0338,-9.3380995,2.9945,wlk
-1.3068676,0.6217561,-0.25610963,-4.6646,-3.9822,-3.1201,0.0751,-9.4135,2.7475,wlk
-1.2678596,0.99352866,-0.21614157,-4.3778,-7.0975,-6.6854,0.0727,-9.4854,2.4882,wlk
-1.2313298,1.1720583,-0.19170697,-1.0191,-1.851,-3.3453,-0.0105,-9.5638,2.1685,wlk
-1.2162327,1.3546896,-0.2406809,1.0544,1.5116999,-1.1640999,-0.1129,-9.631599,1.8407999,wlk
-1.2104207,1.5041945,-0.3337244,1.2858,1.412,-1.4411,-0.1581,-9.679,1.5685999,wlk
-1.1781671,1.3591228,-0.35896188,1.4576,1.1744,-1.1065999,-0.1435,-9.716,1.3223,wlk
-1.1404505,1.1543782,-0.3892957,1.6055,0.4741,-0.035099998,-0.1051,-9.7512,1.0354,wlk
-1.0371444,0.87627745,-0.4269599,1.7767999,0.0156,0.009,-0.0704,-9.7733,0.8048,wlk
-0.9031032,0.5248903,-0.46581092,1.5617,0.072399996,-0.0064999997,-0.0416,-9.7908,0.5557,wlk
-0.8151211,0.29656634,-0.45465827,0.8448,0.59389997,0.5438,-0.0112,-9.8022995,0.2897,wlk
-0.8068308,0.24144885,-0.40863395,-0.3994,0.79399997,0.366,0.0267,-9.8063,0.0752,wlk
-0.855892,0.34611624,-0.37325612,-1.4566,0.41009998,-0.1731,0.093499996,-9.8048,-0.1602,wlk
-0.87639964,0.4718672,-0.3631332,-2.1032,0.3144,0.162,0.1713,-9.7973995,-0.3875,wlk
-0.8435176,0.46591565,-0.41020474,-1.5828999,0.3701,0.7529,0.259,-9.7844,-0.6058,wlk
-0.71764445,0.4010243,-0.5267229,-1.0412999,0.18609999,1.1856999,0.3548,-9.7671995,-0.8032,wlk
-0.5330934,0.40709805,-0.5822069,-1.2987,-0.2085,1.8061999,0.46519998,-9.7452,-0.9923,wlk
-0.4240801,0.4635769,-0.5755223,-1.6292,-0.15959999,2.162,0.5505,-9.7254,-1.1323,wlk
-0.40456733,0.57170004,-0.51975906,-1.7046,0.0023,1.7765,0.6357,-9.701099,-1.2861999,wlk
-0.342102,0.6588792,-0.37114426,-1.2077999,-0.0358,1.3393999,0.7175,-9.6726,-1.4472,wlk
-0.18228218,0.8611629,-0.26703537,-0.29209998,0.20629999,1.168,0.802,-9.6403,-1.6093,wlk
0.17373008,1.028575,-0.2748021,0.1427,-0.2899,1.2831,0.89669997,-9.604899,-1.7636,wlk
0.6865776,0.8253662,-0.252968,-0.0415,-1.0028,0.8246,1.0123,-9.5686,-1.8935,wlk
1.3369222,0.48644072,-0.11515682,-0.54109997,-2.0461,0.83919996,1.1393,-9.535399,-1.9864999,wlk
2.310554,0.03309144,0.041259583,-1.5619,-2.4988,1.4872999,1.2677,-9.504499,-2.0561,wlk
2.8145528,-0.42514476,0.34663984,-1.7983999,-2.9822,3.1503,1.3963,-9.472199,-2.1206,wlk
3.155695,-0.63653904,0.6911155,-1.3328999,-3.3593,4.8901997,1.4898,-9.4481,-2.164,wlk
3.0407474,-0.81833255,0.9359328,-1.9698,-3.5714998,5.2414,1.5775,-9.432,-2.1719,wlk
2.7244937,-0.2510656,1.0631324,-3.5951998,-4.75,4.8938,1.6829,-9.4304,-2.0988998,wlk
2.466988,0.19324285,1.2488878,-4.4528,-4.9091997,5.3203,1.7558999,-9.447599,-1.9566,wlk
2.313399,-0.07838274,1.3379171,-3.945,-3.9799998,3.8397,1.7974,-9.4943,-1.6725,wlk
2.246867,-0.35983452,1.2862552,-2.3293998,-1.3489,0.8752,1.7901,-9.5658,-1.2085999,wlk
2.1953623,-0.40170497,1.0801145,-0.5949,0.38819999,0.1866,1.7227,-9.625999,-0.73569995,wlk
2.2210014,-0.68491954,0.905407,0.9109,-0.2347,-1.8925999,1.5701,-9.6797,-0.0883,wlk
2.1983643,-1.0060427,0.8605346,1.2973,-4.2394,0.28579998,1.4092,-9.6957,0.4202,wlk
2.0754235,-1.3339202,0.7864454,2.0300999,-6.3599,0.5847,1.1863999,-9.6837,0.9941,wlk
1.8740299,-1.496358,0.6398726,2.4675,-5.0656,-1.143,0.9647,-9.654099,1.4274,wlk
1.5826122,-1.461242,0.6019117,2.605,-2.2951999,-1.7246,0.7096,-9.6001,1.8716999,wlk
1.1566646,-1.3973106,0.6332753,2.2378,-1.1577,-2.5621,0.47849998,-9.5217,2.2972999,wlk
0.5712812,-1.3128542,0.63114595,0.7047,-0.3979,-1.9374,0.2759,-9.4087,2.7512999,wlk
-0.06462954,-1.1118096,0.59032273,-0.41459998,0.1648,-2.7696,0.15959999,-9.2948,3.1227,wlk
-0.6554584,-0.8432558,0.50724506,0.6677,1.5209,-2.9866998,0.0677,-9.150499,3.5261,wlk
-1.141358,-0.6338163,0.39379865,1.2445999,2.3121998,-3.3504999,0.020399999,-8.9807,3.9389,wlk
-1.569086,-0.6845705,0.24979152,1.6294,2.7041,-4.1605997,0.0278,-8.842999,4.239,wlk
-1.8118088,-0.8676555,0.011117747,1.7443999,2.9973998,-4.7314997,0.0501,-8.7049,4.5157,wlk
-1.5219795,-1.0928903,-0.3042807,1.8305999,3.6062,-5.0085998,0.0718,-8.587999,4.7339997,wlk
-0.7107853,-1.114096,-0.2656042,1.5502,4.1365,-5.0066,0.0874,-8.5397,4.8202,wlk
-0.018046705,-1.0382789,-0.067544244,1.5244,4.6047,-4.415,0.0936,-8.547,4.8073,wlk
0.5754525,-0.20923007,0.09297369,1.5999999,4.658,-3.291,0.0867,-8.6101,4.6934,wlk
1.040478,-0.34232888,0.28923595,1.708,4.1849,-1.7781999,0.076699995,-8.7156,4.4946,wlk
0.8365887,-1.0572157,0.42092106,2.1238,2.802,1.3521999,0.0924,-8.8527,4.2179,wlk
0.21703169,-0.96516705,0.5170538,1.869,-0.15969999,4.9729,0.1608,-8.999599,3.8923,wlk
-0.4620061,-0.6254736,0.46849874,-0.29799998,-3.6067,7.46,0.29799998,-9.1124,3.6116,wlk
-1.0601305,-0.24176301,0.092903875,-0.58239996,-4.8233,9.1767,0.42549998,-9.1608,3.4738,wlk
-0.76661843,-0.677083,-0.467085,-0.1568,-5.2542,8.532599,0.5099,-9.1614,3.4608,wlk
0.12676327,0.113725655,-0.23143066,0.2474,-3.0284,3.2221,0.5076,-9.1219,3.564,wlk
-0.86425215,1.923126,0.12812462,-1.5784,0.6443,1.4869,0.48009998,-9.0486,3.7496998,wlk
-1.635164,1.6481668,-0.16514306,-1.7695999,3.6636999,0.1595,0.4849,-8.9888,3.8904998,wlk
-1.5600276,1.2093211,-0.46677086,1.0819,3.0633,-0.9392,0.46739998,-8.9767,3.9204,wlk
-1.6507673,1.5129561,-0.2994985,6.8644,-1.29,-2.449,0.4317,-9.0167,3.8316998,wlk
-1.6704023,1.3700311,-0.031939525,6.8041997,-6.1154,2.4029999,0.433,-9.1044,3.6181998,wlk
-1.6945577,1.1506606,0.11564551,0.0941,-5.4330997,3.5449998,0.553,-9.1493,3.4863,wlk
-1.4727961,0.5817706,0.0025830872,2.3055,2.1162,-6.6685996,0.58739996,-9.1377,3.5108,wlk
-1.2542983,0.13465215,-0.19360937,6.8546996,6.4624,-5.2353,0.4315,-9.1985,3.372,wlk
-1.2527275,0.1516342,-0.29993483,0.6543,2.9675999,-3.4060998,0.3557,-9.3027,3.0825,wlk
-1.2926083,0.28539625,-0.20968385,-3.8827,-2.5435,-4.2216997,0.3719,-9.3911,2.7997,wlk
-1.2913167,0.64430577,-0.12318534,-3.6218,-4.8136,-5.1854,0.3464,-9.4844,2.4689,wlk
-1.2664284,0.989113,-0.10890854,-1.5692999,-1.5173999,-3.8184998,0.2944,-9.5542,2.1906,wlk
-1.2360597,1.2249594,-0.14779449,0.2157,0.90559995,-1.8716999,0.22549999,-9.6237,1.8716999,wlk
-1.1393335,1.1809945,-0.23766148,1.0209,0.7212,-1.4037,0.2049,-9.6747,1.5899999,wlk
-0.9968448,1.0063742,-0.29417524,1.0133,0.47599998,-1.2544999,0.2418,-9.7139,1.3232,wlk
-0.88743013,0.828979,-0.33829716,0.80719995,0.1293,-0.33969998,0.2911,-9.7397995,1.1046,wlk
-0.81007713,0.63617253,-0.38189548,1.1445,0.28079998,0.116399996,0.32639998,-9.7639,0.85429996,wlk
-0.8327315,0.38957494,-0.3677234,1.1396999,0.5146,0.18789999,0.341,-9.781899,0.6063,wlk
-0.8619134,0.1723338,-0.2955017,0.5003,0.6929,0.5859,0.35279998,-9.7934,0.3653,wlk
-0.93718946,0.13484414,-0.2626546,-0.3782,0.551,0.2932,0.3782,-9.798699,0.108799994,wlk
-0.98064816,0.25797713,-0.26248008,-1.2044,0.2848,0.6229,0.4199,-9.7972,-0.0835,wlk
-0.92966706,0.28204522,-0.31140164,-1.5696,0.1413,0.9855,0.4811,-9.7911,-0.2697,wlk
-0.82351613,0.22973768,-0.41256094,-1.5533999,0.13159999,0.63089997,0.5531,-9.7813,-0.43469998,wlk
-0.69526935,0.27541295,-0.50764644,-1.9777999,-0.24399999,0.59529996,0.6343,-9.768499,-0.5855,wlk
-0.5078384,0.37058577,-0.5363048,-1.9567,-0.309,1.3507,0.7112,-9.7525,-0.7427,wlk
-0.39835393,0.36466908,-0.47907543,-1.6640999,-0.0039999997,1.8201,0.77169997,-9.7339,-0.90809995,wlk
-0.4365941,0.3405661,-0.41992623,-1.4727,0.3751,1.5979999,0.8254,-9.7109995,-1.0881,wlk
-0.4522497,0.3931005,-0.3408977,-0.47059998,0.3671,1.1365,0.8824,-9.6834,-1.2738,wlk
-0.31438616,0.61606634,-0.2745752,0.62839997,0.16929999,1.4778,0.9503,-9.6524,-1.4483,wlk
-0.0259705,0.82655305,-0.29708993,0.41439998,-0.0796,2.0927,1.0368,-9.6191,-1.6024,wlk
0.48780206,0.62489766,-0.31642818,-0.9964,-0.78069997,1.2297,1.1435,-9.5848,-1.7298,wlk
1.0687,0.23183209,-0.13557717,-1.5437,-1.6941999,-0.0843,1.2593,-9.554,-1.8181,wlk
1.9674573,-0.10115928,0.14627604,-1.4721,-2.2903,0.42319998,1.3642,-9.5267,-1.8844,wlk
2.619268,-0.44909066,0.4299095,-1.5453999,-2.4562,2.5853999,1.4570999,-9.498,-1.9577999,wlk
2.9721735,-0.7757116,0.6108129,-1.4394,-2.9943,4.2578,1.5374999,-9.4698,-2.0317,wlk
3.162205,-0.9064542,0.7975457,-1.8108,-3.5651,4.592,1.6147,-9.448299,-2.0716999,wlk
2.7961745,-0.67092204,0.8961044,-3.3818,-4.9391,4.0889,1.7048,-9.4374,-2.0491,wlk
2.552195,-0.30455995,1.0883698,-4.8884,-5.1366,5.132,1.7895,-9.4458,-1.9351,wlk
2.499521,-0.4602433,1.2558342,-4.8146,-4.4354997,4.6761,1.8235999,-9.48,-1.7242999,wlk
2.4070358,-0.5279272,1.2625712,-2.6917999,-2.0298998,1.5712999,1.7895,-9.5515995,-1.3162999,wlk
2.2597651,-0.58430135,1.1366631,0.029199999,0.4281,1.2215999,1.7064999,-9.6168995,-0.87839997,wlk
2.2092378,-0.7223045,0.9675233,1.0195,0.44489998,-0.7484,1.5791999,-9.672999,-0.3303,wlk
2.1756053,-0.83877033,0.9082519,0.6746,-2.5098999,-0.3338,1.4239,-9.6993,0.2553,wlk
2.0502033,-1.0353118,0.85432124,0.6258,-5.6528997,-0.4759,1.257,-9.6944,0.77989995,wlk
1.8977139,-1.3313546,0.7352723,1.2227,-5.6801,-0.92399997,1.0524,-9.6673,1.2672,wlk
1.6382533,-1.3331872,0.65547585,2.1699,-3.2574,-2.0137,0.8014,-9.6088,1.7881,wlk
1.2041376,-1.4568613,0.64139104,2.2900999,-1.8371999,-2.5593,0.6027,-9.5384,2.1964,wlk
0.70017374,-1.4150257,0.66575587,1.3304,-0.91459996,-2.3548,0.415,-9.4411,2.6195998,wlk
0.111352004,-1.2033522,0.6416005,0.2454,-0.14039999,-2.1074998,0.2742,-9.3229,3.0293,wlk
-0.45547858,-0.9218131,0.56599283,0.7136,0.97319996,-2.9485,0.1493,-9.171599,3.4682,wlk
-0.9579414,-0.64751714,0.4391772,1.1193,1.8705,-3.3904,0.077,-9.0391,3.8023,wlk
-1.4042395,-0.5817706,0.26434755,1.42,2.5247,-3.8762,0.050899997,-8.8892,4.141,wlk
-1.7051169,-0.8330631,0.053738687,1.1664,2.5811,-4.9386997,0.0495,-8.7494,4.4288,wlk
-1.6391085,-1.1504164,-0.2134014,1.3910999,3.0707998,-4.7934,0.07,-8.641,4.6365,wlk
-1.0604446,-1.2752248,-0.29417524,1.5570999,3.8820999,-4.8746,0.0903,-8.5697,4.7667,wlk
-0.36857864,-1.1276747,-0.09770353,1.788,4.6091,-4.5564,0.094799995,-8.5611,4.7819,wlk
0.38905135,-0.5140867,0.05073672,2.0527,5.1043,-3.5156,0.085099995,-8.6053,4.7022,wlk
0.98497653,-0.18449876,0.3002839,1.8334999,4.6247,-2.2505999,0.0689,-8.6944,4.5355,wlk
0.9417099,-0.8195019,0.4515167,1.8872999,3.3074,0.0947,0.0739,-8.8187,4.2888,wlk
0.42313763,-0.99359846,0.54513615,1.4455,0.83019996,3.518,0.13329999,-8.9599,3.984,wlk
-0.27232373,-0.7056541,0.576203,-0.3385,-2.7224,6.7897,0.2601,-9.0847,3.6836998,wlk
-0.991155,-0.12191125,0.4246037,-0.9151,-4.7960997,8.5213995,0.4051,-9.1587,3.4817998,wlk
-1.1142007,-0.3207915,-0.15748106,-0.5596,-5.8601,9.2072,0.5007,-9.1832,3.4041,wlk
-0.08356637,-0.044069562,-0.16536994,-0.0069999998,-4.0231,4.3259997,0.5268,-9.156899,3.4701998,wlk
-0.1142318,1.576678,0.12721705,-0.74009997,-0.42249998,1.8533,0.4851,-9.0898,3.6481,wlk
-1.2107348,1.8974347,-0.04769985,-1.6707,2.8063998,1.0432,0.46449998,-9.0238,3.8109999,wlk
-1.5575492,0.9799675,-0.5478065,-0.44059998,3.688,-0.70769995,0.44059998,-8.9934,3.8851,wlk
-1.6469625,0.94841194,-0.4892158,3.6833,0.46519998,-2.3549,0.3962,-9.0166,3.8356998,wlk
-1.7264622,1.3993701,-0.031555552,7.4579,-4.4195,-0.22299999,0.3285,-9.0939,3.6553998,wlk
-1.6751496,0.91367984,0.21525146,2.7235,-6.5207996,5.2695,0.38509998,-9.1795,3.4289,wlk
-1.2834628,-0.034557518,0.10737266,1.3499,-0.9173,-2.7675998,0.4152,-9.1834,3.4148998,wlk
-1.150172,-0.18563321,-0.20558234,7.2471,6.0245,-7.2688,0.2843,-9.1921,3.405,wlk
-1.2913691,0.07108726,-0.35871753,3.9325,6.1019998,-4.9824,0.1568,-9.2794,3.1682,wlk
-1.2613844,0.31100023,-0.30309388,-4.4806,-1.4047999,-3.2925,0.1951,-9.3629,2.9099998,wlk
-1.215552,0.697259,-0.21443115,-6.7268996,-6.5136,-6.8308997,0.2349,-9.4516,2.6042,wlk
-1.188674,0.93427473,-0.19247492,-2.7263,-3.1460998,-5.7114,0.16679999,-9.5436,2.2496998,wlk
-1.1500498,1.02854,-0.22495548,1.2875999,0.76199996,-0.8549,0.095,-9.6076,1.9631,wlk
-1.0840589,0.91881114,-0.26912978,2.8760998,1.7802999,-0.2154,0.0756,-9.655,1.7159,wlk
-1.0235658,0.8370075,-0.3042458,2.1046,0.91459996,-0.9733,0.1214,-9.6915,1.4929999,wlk
-0.9611528,0.6193301,-0.3435157,1.3504,0.1642,-0.19319999,0.1891,-9.725699,1.2425,wlk
-0.9027541,0.3434459,-0.41339868,0.9061,0.2402,0.2766,0.2412,-9.7527,0.9982,wlk
-0.9062971,0.13746212,-0.43289402,0.5333,0.2507,-0.1565,0.2708,-9.773,0.76449996,wlk
-0.91163784,0.07836528,-0.38355356,-0.051099997,0.5201,0.0804,0.2963,-9.787399,0.5373,wlk
-0.95363045,0.13308136,-0.3605501,-1.0512,0.44079998,0.2817,0.3353,-9.7964,0.2968,wlk
-0.95863956,0.12774065,-0.40748203,-2.0221999,0.0312,0.4287,0.3845,-9.7986,0.091,wlk
-0.8954761,0.07431612,-0.474747,-1.6443,0.12709999,0.5833,0.43809998,-9.7965,-0.0832,wlk
-0.8317192,0.14416419,-0.5315226,-1.0763,0.40489998,0.3145,0.5076,-9.7899,-0.26549998,wlk
-0.69673544,0.27551767,-0.55042446,-1.4146,0.1881,0.5854,0.5909,-9.778999,-0.43829998,wlk
-0.47296676,0.27593654,-0.5361826,-1.5595,-0.0033999998,1.1725999,0.67689997,-9.7639,-0.61359996,wlk
-0.30681142,0.21455333,-0.47083747,-1.0742999,0.3292,1.2099999,0.76049995,-9.7436,-0.80799997,wlk
-0.33688346,0.24375269,-0.35866517,-0.5316,0.5736,0.9633,0.8258,-9.7232,-0.97309995,wlk
-0.36412805,0.387498,-0.21053907,-0.1722,0.1735,0.9903,0.9077,-9.6957,-1.157,wlk
-0.23558454,0.6766816,-0.15912166,0.13599999,-0.29909998,1.5544,1.0014,-9.6644,-1.3288,wlk
0.13606587,0.7974933,-0.21610667,-0.3628,-0.5789,1.5842999,1.1080999,-9.6298,-1.4862,wlk
0.6104289,0.4404164,-0.18113028,-1.0361,-1.0447999,0.9959,1.2224,-9.5954,-1.6136999,wlk
1.2619778,0.03227114,-0.04511676,-1.6972,-1.9958999,0.47129998,1.3342999,-9.566,-1.6972,wlk
2.0302544,-0.417762,0.16734217,-1.8338,-2.402,1.0241,1.4317,-9.542399,-1.7498,wlk
2.526783,-0.87907,0.34435347,-1.4401,-2.7677,2.9050999,1.5087999,-9.519899,-1.8068,wlk
2.9168465,-1.0213492,0.48605675,-1.0041,-2.7876,4.2274,1.563,-9.5001,-1.864,wlk
3.0413234,-0.9510299,0.6498559,-1.9619,-4.1842,3.7503998,1.6186,-9.486199,-1.8872,wlk
2.7501502,-0.5533915,0.9118298,-3.7879,-4.8139,3.9236999,1.6893,-9.484099,-1.8348999,wlk
2.4033532,-0.056583576,1.2272632,-5.1618,-4.8279,4.6359997,1.7393,-9.499499,-1.7038,wlk
2.2163413,-0.06642723,1.4303497,-4.5927997,-3.5244,3.1295,1.7488999,-9.5379,-1.4624,wlk
2.1579425,-0.29044023,1.4580829,-1.9906,-1.025,1.0392,1.7062,-9.5955,-1.0882,wlk
2.0492084,-0.32201326,1.2916484,0.6541,1.0619,1.4318,1.6208999,-9.652599,-0.608,wlk
2.0526295,-0.5646489,1.0991385,1.3289,0.52739996,-0.63299996,1.5246999,-9.6868,-0.1024,wlk
2.0735035,-0.7774918,1.017527,0.6082,-3.1025999,-0.5967,1.4021,-9.695,0.4594,wlk
1.9378566,-1.1477286,0.9139242,1.323,-5.8673,-0.4414,1.2168,-9.6762,1.0297999,wlk
1.7930989,-1.4413278,0.77045816,2.0746,-5.7394,-1.1230999,1.0045999,-9.6470995,1.4468,wlk
1.5633961,-1.5148062,0.70904,2.6713,-3.2777,-1.5193,0.73149997,-9.5984,1.8722999,wlk
1.1699989,-1.523079,0.70752156,2.3792,-1.673,-2.3797998,0.4646,-9.5261,2.2817,wlk
0.6726499,-1.3773091,0.6634869,1.0587,-0.6867,-2.2268999,0.2357,-9.4337,2.6682,wlk
0.08117526,-1.0999937,0.5533741,0.2421,0.51309997,-1.8845999,0.0618,-9.3195,3.0516,wlk
-0.57173496,-0.6920405,0.408058,0.88009995,1.212,-3.0235999,-0.076,-9.1848,3.4355,wlk
-1.1079001,-0.2532822,0.22462387,1.2774999,1.6776999,-3.0658998,-0.15959999,-9.0425,3.7916,wlk
-1.4973005,-0.0070685833,0.054716073,1.4096,1.9451,-3.8927999,-0.1838,-8.898,4.1183,wlk
-1.6950463,0.044139378,-0.1394518,1.6902,2.4958,-4.5078998,-0.17989999,-8.762199,4.4000998,wlk
-1.5764512,-0.27928758,-0.3450516,2.3234,3.5842998,-4.6484,-0.16589999,-8.6543,4.6092,wlk
-1.0778106,-0.687939,-0.3858574,2.721,4.5392,-4.7296,-0.15169999,-8.5893,4.7296,wlk
-0.47865656,-0.8537976,-0.14807373,2.6323,5.2251997,-4.17,-0.1414,-8.5791,4.7485,wlk
-0.1258906,-0.08025024,0.098262034,2.3427,4.9881,-3.0240998,-0.146,-8.6264,4.6618,wlk
0.3637615,0.60533255,0.3086615,2.4369,4.206,-1.7833999,-0.1618,-8.7269,4.4704,wlk
0.7316595,-0.4141841,0.41060615,2.7891,3.306,0.097799994,-0.1707,-8.8566,4.2072,wlk
0.44820055,-0.9860412,0.5093918,2.1303,1.1394,1.9598,-0.1494,-8.9945,3.9045,wlk
-0.10166543,-0.80890775,0.5171585,0.065799996,-2.1539,5.0787997,-0.065799996,-9.1139,3.6195998,wlk
-0.6569245,-0.49748865,0.43235296,-2.4167,-4.3531,7.3353,0.053299997,-9.189799,3.4225,wlk
-1.1902971,-0.16842428,-0.0020594886,-4.1492,-4.6937,8.5822,0.1382,-9.2219,3.3328,wlk
-0.7274707,-0.22635175,-0.53729963,-1.773,-3.8025,5.1535997,0.1255,-9.2304,3.3093998,wlk
0.5252045,0.4853586,-0.100949846,-0.4499,-1.8258,2.2907,0.028199999,-9.2066,3.3774998,wlk
-0.42992696,2.5898416,0.40002945,-0.93259996,1.1539999,1.3422999,-0.0185,-9.156199,3.5119,wlk
-1.3956176,2.057813,0.17577212,-0.4193,3.24,0.5341,-0.0415,-9.124,3.5944,wlk
-1.2641071,0.87594587,-0.3693466,2.0293999,2.0502,-0.62509996,-0.0779,-9.1306,3.5769,wlk
-1.4500719,1.4474714,-0.25488788,7.7221,-2.5233,-0.7805,-0.121999994,-9.176,3.4577,wlk
-1.6364207,1.5678642,0.027471483,7.5045,-7.8469996,3.9787998,-0.1103,-9.2557,3.2387998,wlk
-1.3326811,0.8785115,0.10756464,0.53389996,-6.2366,4.4702997,0.015199999,-9.3069,3.0904999,wlk
-1.1040255,0.4228933,0.004834562,1.3680999,2.9715,-8.4839,0.0047,-9.2772,3.1785,wlk
-1.2184668,0.43903756,-0.14552556,7.8026996,8.7541,-6.937,-0.23189999,-9.3032,3.0928,wlk
-1.3245478,0.58702403,-0.15418239,2.4508,4.5773,-3.7034,-0.40129998,-9.3923,2.7914,wlk
-1.3389293,0.9372243,-0.12372639,-4.9832997,-3.7240999,-4.2967997,-0.38079998,-9.4559,2.5709,wlk
-1.2599881,1.1776085,-0.10156071,-3.3613,-6.1554,-6.0016,-0.4044,-9.5351,2.2554,wlk
-1.2292528,1.3149486,-0.10957177,0.0959,-1.8374,-2.079,-0.46859998,-9.597,1.9612999,wlk
-1.192758,1.4772642,-0.21659537,2.1983,1.1913999,-0.4606,-0.5214,-9.6447,1.6962,wlk
-1.1318635,1.3697867,-0.28694957,2.095,1.3047999,-1.4883,-0.53569996,-9.6797,1.4785,wlk
-1.0925586,1.2272457,-0.3279997,2.1178,0.8785,-0.6001,-0.5194,-9.7143,1.2376,wlk
-1.0253634,0.99904394,-0.34281757,1.8654,0.5564,-0.3658,-0.50229996,-9.7452,0.9738,wlk
-0.93149966,0.7753625,-0.33098423,1.6999999,0.17799999,-0.4287,-0.49379998,-9.7689,0.7033,wlk
-0.83599526,0.64383453,-0.33060026,1.3995,-0.0222,0.2214,-0.4874,-9.7843,0.4454,wlk
-0.76941097,0.5760808,-0.3103719,0.7783,0.59459996,0.7787,-0.4743,-9.7932,0.19209999,wlk
-0.78236127,0.58517396,-0.32204816,-0.40399998,0.6473,0.56,-0.42949998,-9.7969,-0.0795,wlk
-0.8375661,0.59915406,-0.3594331,-1.2339,0.4887,0.30859998,-0.3743,-9.795199,-0.289,wlk
-0.85678214,0.6250548,-0.40957642,-1.2883999,0.2174,0.6387,-0.3002,-9.7887,-0.5112,wlk
-0.8154876,0.6621081,-0.4598419,-0.8774,0.1771,1.1779,-0.2208,-9.7779,-0.717,wlk
-0.705305,0.64217645,-0.4630184,-0.6997,0.025999999,1.5098,-0.1435,-9.764,-0.90169996,wlk
-0.5465149,0.6056118,-0.38388517,-0.4337,0.0495,1.7623999,-0.0663,-9.748199,-1.0662,wlk
-0.44062582,0.66130525,-0.25862288,-0.014699999,0.4813,1.6725999,0.014699999,-9.729,-1.2313,wlk
-0.48059386,0.88908815,-0.06766641,0.0132,0.5412,0.97529995,0.084699996,-9.7104,-1.3675,wlk
-0.5069309,1.2291481,0.057473693,0.1125,0.3003,0.7242,0.1718,-9.6852,-1.5284,wlk
-0.40098938,1.6384802,0.011013027,0.34649998,-0.0919,1.0538,0.2712,-9.6558,-1.6911999,wlk
-0.11386528,1.7804278,-0.150779,-0.3342,-0.2708,0.8634,0.38329998,-9.624,-1.8441,wlk
0.2946814,1.5779697,-0.17079791,-1.2813,-0.91959995,0.4244,0.49679998,-9.592999,-1.9739,wlk
0.8047713,1.2146095,0.03843215,-1.9188,-1.6057,0.22819999,0.60469997,-9.564,-2.0816,wlk
1.4940891,0.6236236,0.39393827,-1.3511,-2.3021,1.4142,0.6744,-9.5443,-2.1497,wlk
2.1607525,0.14486232,0.61686915,0.1366,-2.6869,3.4742,0.7263,-9.5223,-2.2288,wlk
2.6352727,-0.04436627,0.5567077,0.7292,-2.3363,4.8073997,0.7711,-9.500199,-2.3067,wlk
3.0343246,-0.0022514747,0.4541172,-0.6297,-2.5412,4.3176,0.8454,-9.4817,-2.3562999,wlk
3.083386,0.07400196,0.42186353,-3.1641998,-3.9122999,3.9048998,0.9578,-9.473599,-2.3457,wlk
2.7660851,0.6932622,0.7304726,-4.4069,-5.2261,3.7189999,1.0627999,-9.4838,-2.2577999,wlk
2.3320217,1.2201247,0.9570164,-4.0992,-5.4649,3.8142,1.1082,-9.5195,-2.0784,wlk
2.281093,1.1313573,1.0058682,-1.5570999,-2.8588,3.3876,1.0569,-9.5857,-1.7793,wlk
2.3129628,0.9806307,0.8332551,1.2793,-0.3038,2.4866,0.937,-9.6694,-1.3392,wlk
2.2714763,0.7416428,0.5815961,3.9914,0.8391,1.8149999,0.83339995,-9.7337,-0.854,wlk
2.3385143,0.22451915,0.42779765,4.4919,-1.6499,0.60499996,0.74469995,-9.774799,-0.2618,wlk
2.250602,-0.01743584,0.24415411,3.9452999,-5.8552,0.9701,0.65389997,-9.7765,0.4028,wlk
2.0844991,-0.30220374,0.033772122,3.8367,-6.3408,0.5941,0.51739997,-9.7518,0.8965,wlk
1.7700082,-0.26445228,0.0031415927,4.2564,-3.6299,-0.576,0.3035,-9.707,1.3605,wlk
1.2804084,-0.29649654,0.07476991,4.8498,-1.3154,-2.1299,0.0731,-9.6385,1.8062999,wlk
0.7415555,-0.26724482,0.107634455,3.804,0.3064,-2.5046,-0.1265,-9.5442,2.2496998,wlk
0.14903367,-0.18547614,0.0591143,1.5286,1.0845,-1.9521999,-0.27339998,-9.4299,2.6778998,wlk
-0.46143013,0.020594886,-0.031363565,1.5134,1.7451999,-3.3537998,-0.37579998,-9.2767,3.1576998,wlk
-1.0461329,0.26879814,-0.14624114,1.6313,1.9315,-2.8444998,-0.4152,-9.1394,3.531,wlk
-1.5128514,0.30724776,-0.25113544,1.4678,1.6583999,-3.5289998,-0.3988,-8.9839,3.9113998,wlk
-1.7947046,0.2061583,-0.2998301,1.5720999,1.7050999,-4.2016997,-0.37559998,-8.824699,4.2605,wlk
-1.8370638,0.03853687,-0.329204,1.6683999,2.6533,-4.9356,-0.36409998,-8.723599,4.4648,wlk
-1.6160352,-0.025534166,-0.27871162,1.9275999,3.968,-5.3705,-0.3586,-8.6556,4.5958,wlk
-1.0937281,0.45507714,-0.08838347,1.6559999,4.9737,-4.9368,-0.35169998,-8.641399,4.6229,wlk
-0.49300316,0.7256904,-0.020367993,1.6425999,5.4280996,-3.9348998,-0.34809998,-8.6839,4.5429,wlk
0.11164871,0.92671746,-0.048642326,0.79749995,4.463,-2.6913,-0.3464,-8.778,4.3585,wlk
0.6488436,0.31792918,-0.1402023,0.5731,3.2979999,-0.57809997,-0.3279,-8.9074,4.0889,wlk
0.660834,-0.4569272,-0.2679604,0.73149997,1.8226999,2.089,-0.2902,-9.0501995,3.7654,wlk
0.09028588,-0.111352004,-0.31719613,-1.1163,-0.8745,4.9881,-0.2271,-9.1968,3.3964999,wlk
-0.5990319,0.37274995,-0.32855824,-2.5567,-3.3479998,7.2672,-0.1792,-9.2927,3.1278,wlk
-1.3013,0.8361523,-0.5469513,-1.0648999,-4.0562,7.2962,-0.1902,-9.359099,2.9222,wlk
-1.5820363,0.9139591,-0.79524183,0.7773,-4.1847997,7.3817997,-0.22809999,-9.3875,2.8269,wlk
-0.9693035,0.77194166,-0.63624233,2.4387999,-2.965,4.3743,-0.2715,-9.3814,2.8432999,wlk
-0.2893756,1.5222936,0.03598869,1.4110999,0.30269998,2.45,-0.26369998,-9.3445,2.9631999,wlk
-0.9095085,2.9442134,0.6122964,0.62729996,3.0588,1.4518,-0.18599999,-9.3056,3.0886,wlk
-1.1345513,2.384085,0.30546752,2.8562,2.8481998,0.091,-0.1201,-9.301,3.1058998,wlk
-0.7567573,1.3606586,-0.2681175,6.956,-0.0173,-0.39479998,-0.081599995,-9.3380995,2.9936,wlk
-1.1607138,1.4178357,-0.10932742,7.2194,-4.0635,-0.066599995,-0.0213,-9.4206,2.7242,wlk
-1.4921693,1.6023344,0.16667895,3.1647,-5.922,2.8107,0.0714,-9.4939995,2.4554,wlk
-1.234995,1.5598181,0.16685347,-3.912,-3.6220999,2.0715,0.156,-9.5383,2.2726998,wlk
-1.0898708,1.591653,0.10454522,-1.5934,2.129,-5.6285996,0.0733,-9.5527,2.2159,wlk
-1.2014847,1.6131904,0.10053097,5.3331,6.302,-4.7149997,-0.1453,-9.5872,2.0574,wlk
-1.338109,1.9760443,0.11264355,3.6211998,2.8536,-1.9956,-0.2967,-9.63,1.8289,wlk
-1.4101039,2.3960404,0.08019788,-1.2181,-1.7638999,-3.7484,-0.292,-9.6607,1.6595999,wlk
-1.350082,2.5853736,0.03520329,-0.9327,-2.4271,-2.8618999,-0.3127,-9.6938,1.4497,wlk
-1.2560087,2.546994,0.003944444,0.83779997,-1.0361999,-1.6292,-0.3867,-9.7314,1.1487,wlk
-1.1727216,2.6802847,-0.057962384,2.2223,0.2742,-2.0757,-0.45709997,-9.757299,0.8695,wlk
-1.1009711,2.663163,-0.06339036,2.7431998,0.5728,-1.4390999,-0.49749997,-9.7713995,0.6644,wlk
-0.95197237,2.4757495,-0.015009832,3.0449998,0.5258,-0.1775,-0.5345,-9.783299,0.41279998,wlk
-0.7633372,2.2761536,0.023492131,2.9824,0.5222,-0.5028,-0.5699,-9.789499,0.1008,wlk
-0.5861688,2.2412121,0.057107173,2.4164,0.34399998,-1.3671,-0.5825,-9.7878,-0.1724,wlk
-0.46928412,2.2387862,0.08173377,1.3182,0.17799999,-0.9554,-0.5729,-9.7787,-0.4664,wlk
-0.43750167,2.0078268,0.0545939,0.0722,0.19219999,-0.0343,-0.54289997,-9.7635,-0.7403,wlk
-0.4750786,1.6724094,-0.02284636,-1.2212,-0.1805,-0.22909999,-0.4851,-9.7438,-0.9966,wlk
-0.4861789,1.4353238,-0.16821483,-1.8715999,-0.4693,0.39139998,-0.41329998,-9.7198,-1.2348,wlk
-0.5143485,1.3461725,-0.33033848,-1.4774,-0.48749998,1.8507999,-0.33679998,-9.6917,-1.4584999,wlk
-0.5850693,1.2715945,-0.4945565,-0.94759995,-0.30269998,2.5846999,-0.27809998,-9.6705,-1.604,wlk
-0.5945115,1.1874348,-0.5758888,-0.44239998,-0.1264,2.2775,-0.2145,-9.6507,-1.7283,wlk
-0.66205573,1.2888558,-0.4475897,-0.4148,0.0313,1.513,-0.1441,-9.632,-1.8366,wlk
-0.6215466,1.5561879,-0.2879095,-0.7281,0.4283,1.0731,-0.0858,-9.6171,-1.9165,wlk
-0.42523202,1.7424843,-0.13027138,-1.0333999,0.7431,1.0581,-0.0158,-9.598499,-2.0094,wlk
-0.3059562,1.7774084,-0.037611846,-0.9579,0.5955,0.3365,0.0753,-9.5784,-2.1016998,wlk
-0.11271336,1.9100709,-0.03502876,-0.6376,0.0822,-0.098299995,0.1963,-9.5554,-2.1964,wlk
0.17575465,2.0882342,0.01685988,-0.5985,-1.3422999,0.6638,0.3631,-9.523399,-2.3113,wlk
0.6284407,2.1401577,0.14896385,-0.5581,-2.464,1.5703,0.5286,-9.4902,-2.4136,wlk
1.2166342,1.8634531,0.34503415,-0.6326,-1.9784,3.4148998,0.662,-9.4560995,-2.5126998,wlk
2.0592966,1.1153352,0.39475858,-0.6685,-2.0144,2.9111998,0.796,-9.4201,-2.6072,wlk
2.6806512,0.2440843,0.34129915,-0.2668,-2.2278,3.7017,0.92389995,-9.393,-2.6622,wlk
3.135484,-0.2138901,0.32039008,-0.90779996,-2.5275,4.8795,1.0156,-9.3777,-2.6827998,wlk
3.1867967,-0.2527586,0.30365238,-2.2029998,-2.7402,5.8108997,1.1242,-9.3709,-2.6629,wlk
2.8006077,0.5125683,0.4810302,-3.2709,-3.9259999,5.2495,1.2408999,-9.381499,-2.5723,wlk
2.3786395,1.1593349,0.88188,-3.7633998,-4.9927,4.4957,1.3118,-9.413199,-2.4167,wlk
2.1347647,1.1078826,1.1254407,-3.3123,-3.6924999,2.8435,1.3313,-9.477799,-2.1375,wlk
2.0739224,0.7930427,1.1250916,-1.8052,-1.5548999,0.8301,1.2952,-9.5755,-1.6733999,wlk
2.1806667,0.30555478,1.0072819,0.2286,-0.0459,1.0763,1.2422999,-9.6528,-1.2038,wlk
2.3572242,-0.25064674,0.7804938,2.0760999,-0.644,-0.018,1.1697999,-9.721499,-0.5409,wlk
2.3560724,-0.4695634,0.6358933,1.5814999,-4.0548997,1.6251999,1.1152999,-9.743,0.012399999,wlk
2.2040367,-0.72165877,0.4139921,1.9431,-6.3851,0.9116,1.0184,-9.736899,0.56909996,wlk
1.9869876,-0.8713905,0.29791024,2.1532,-5.3519998,-0.6799,0.80829996,-9.710899,1.1015999,wlk
1.6726189,-0.96918136,0.28808406,2.2187,-2.6318998,-2.7138999,0.5859,-9.6753,1.4880999,wlk
1.2171402,-0.9991486,0.26509807,1.992,-0.9461,-2.3076,0.3418,-9.6154995,1.8957,wlk
0.68298227,-0.9649925,0.19025834,1.0799999,0.055299997,-1.6774,0.13599999,-9.5285,2.3148,wlk
0.054855697,-0.8386656,0.10756464,0.67579997,1.0153999,-1.0352,0.0007,-9.4099,2.7610998,wlk
-0.5692566,-0.56946605,0.03197443,0.6099,1.7077999,-2.1035,-0.0901,-9.2687,3.2017999,wlk
-1.110937,-0.3137753,-0.047577675,0.8919,1.9980999,-2.8634999,-0.117199995,-9.1177,3.6088,wlk
-1.5562054,-0.1552994,-0.14552556,1.1251,2.5233998,-3.7740998,-0.1052,-8.9664,3.9701998,wlk
-1.8307805,-0.06382669,-0.20970131,1.2633,3.2675998,-4.1226997,-0.076699995,-8.8279,4.2697997,wlk
-1.7844421,-0.3635521,-0.26387632,1.3303,4.1609,-4.5532,-0.0358,-8.721,4.4846,wlk
-1.2738634,-0.7468264,-0.34667474,1.3542,4.8539,-4.4859,0.0186,-8.658899,4.6036,wlk
-0.22003366,-0.9925164,-0.20420352,1.3838999,5.2606997,-3.9945998,0.077199996,-8.6538,4.6124,wlk
0.87430525,-0.47883108,0.100042276,1.0826,5.2637,-3.0906,0.1235,-8.7058,4.5125,wlk
1.2821537,-0.09149016,0.29307568,0.44849998,4.7437997,-1.689,0.1595,-8.8036995,4.3171997,wlk
0.9492497,-0.5008048,0.31787682,0.1744,3.7063,0.2545,0.1982,-8.9332,4.0407,wlk
0.33348006,-0.50248027,0.23106414,0.2844,1.4286,3.0105,0.24509999,-9.0876,3.6775,wlk
-0.32960543,-0.4354771,0.14578736,-0.5076,-2.5191998,7.3169,0.31149998,-9.1996,3.3820999,wlk
-0.9857271,-0.21010274,-0.13727015,-2.2875,-6.9203,10.9116,0.4242,-9.2802,3.1413,wlk
-0.9759881,-0.30445522,-0.59847337,-1.9655,-8.654099,11.9914,0.5239,-9.2919,3.0911,wlk
0.16947147,0.4760909,-0.1094845,0.5528,-4.8055,4.8423,0.53569996,-9.2375,3.2480998,wlk
-0.5620833,2.699134,0.42928118,0.3111,1.6825999,2.0636,0.4831,-9.1455,3.5065,wlk
-1.5222588,2.2429225,0.06841691,-0.0786,5.3342,0.4831,0.46109998,-9.080299,3.6748,wlk
-1.4940019,1.1436794,-0.5665688,1.5437,4.5587,-1.5088999,0.45679998,-9.059999,3.7252,wlk
-1.5838165,1.4274349,-0.5210855,6.1176996,-0.77,-1.5825,0.4624,-9.0856,3.6615,wlk
-1.7940414,1.6913462,-0.13044591,6.3033,-6.8791,0.992,0.5024,-9.154699,3.4796999,wlk
-1.7425019,1.5045785,0.04059636,-1.7116,-8.1339,5.3229,0.6329,-9.214,3.2970998,wlk
-1.3294871,0.6909584,0.004886922,0.4376,1.7580999,-6.8549,0.62149996,-9.2014,3.3342998,wlk
-1.2254131,0.52241194,-0.18757053,7.7163,8.262,-8.2881,0.3642,-9.2425995,3.2573,wlk
-1.3647078,0.68069583,-0.33759904,3.0835998,5.1015997,-4.3603,0.21139999,-9.3380995,2.9873998,wlk
-1.3238671,0.8096582,-0.41495204,-3.3219,-2.4550998,-2.8007,0.25239998,-9.4206,2.7124999,wlk
-1.2524134,0.9906838,-0.37133625,-4.1905,-5.7109,-6.0292997,0.2777,-9.4991,2.4204,wlk
-1.2509298,1.212934,-0.27993336,-1.5893999,-2.7965,-3.8518,0.2263,-9.5793,2.0866,wlk
-1.2468632,1.301335,-0.21570525,0.1924,0.21249999,-1.1984999,0.16049999,-9.6465,1.7574999,wlk
-1.180977,1.3305517,-0.24918066,1.3241,1.5307,-0.8258,0.137,-9.689799,1.5024999,wlk
-1.0432357,1.1325092,-0.27750736,1.9003999,1.5445,-0.8249,0.1589,-9.7232,1.2662,wlk
-0.9030334,0.8530122,-0.39969784,1.6539999,0.7504,0.0169,0.2091,-9.7529,1.0029,wlk
-0.85158104,0.499967,-0.5413313,0.4427,-0.0503,0.0909,0.2829,-9.7758,0.723,wlk
-0.8965233,0.1826487,-0.56592304,-0.3274,-0.14639999,-0.2138,0.3372,-9.7876,0.508,wlk
-0.95904094,0.17345083,-0.495115,-0.85319996,0.4006,0.3557,0.3825,-9.7954,0.27179998,wlk
-1.0068979,0.3442662,-0.42502257,-1.5681,0.6871,0.5111,0.42069998,-9.7975,0.038,wlk
-1.013251,0.3909363,-0.44172537,-1.8736999,0.5165,0.3775,0.4714,-9.7936,-0.1814,wlk
-0.9678898,0.36068973,-0.52199304,-0.93399996,0.64519995,0.9332,0.5319,-9.785,-0.3743,wlk
-0.8498183,0.4595103,-0.5788559,-0.4315,0.53429997,0.63909996,0.6178,-9.7720995,-0.541,wlk
-0.67682123,0.57419586,-0.5629734,-1.4554,-0.022799999,0.7398,0.72969997,-9.7543,-0.7005,wlk
-0.48303732,0.583673,-0.50940925,-2.5883,-0.3597,1.4803,0.84279996,-9.731299,-0.87229997,wlk
-0.40503857,0.60349995,-0.42785,-2.0898,0.119899996,1.3974999,0.9522,-9.701,-1.0739,wlk
-0.33960617,0.6603104,-0.28405234,-0.8373,0.3463,1.1158,1.0333999,-9.6723995,-1.2432,wlk
-0.22134265,0.7700567,-0.15906931,-0.040599998,0.1135,1.2735,1.1291,-9.635799,-1.4304,wlk
0.019285887,1.0462376,-0.14437364,-0.20089999,-0.5362,1.8139,1.2404,-9.594,-1.6079999,wlk
0.5188166,0.9488832,-0.13060299,-1.0332,-1.0309,1.5919,1.3665999,-9.5503,-1.7586,wlk
1.101006,0.4479562,-0.041416664,-1.9291999,-2.0760999,0.7349,1.5074999,-9.5054,-1.8822999,wlk
1.9405967,-0.012007865,0.19676842,-2.5581,-2.7775,0.7298,1.6265,-9.471,-1.9556999,wlk
2.5033083,-0.50829226,0.48832566,-2.4954998,-2.6086,2.2712,1.7207999,-9.4436,-2.0063999,wlk
2.8503845,-0.917729,0.6828077,-1.9677999,-2.701,3.9397998,1.801,-9.4199,-2.0472,wlk
3.0908384,-0.97152007,0.7914719,-2.2842,-3.2161,4.7181997,1.8625,-9.405,-2.0606,wlk
2.9380524,-0.6818129,0.79295546,-3.3023,-4.5450997,3.8465998,1.9391999,-9.3998995,-2.0128,wlk
2.5904176,0.0816465,0.95001763,-4.8581,-5.2374997,4.2057,1.9945999,-9.4135,-1.8913,wlk
2.3501906,0.22204079,1.1404854,-5.8036,-4.8862,4.1172,2.0182,-9.451,-1.6656,wlk
2.2995062,-0.09080948,1.2914389,-3.7357998,-2.2711,0.4055,1.9804,-9.516399,-1.2979,wlk
2.1159325,-0.13243559,1.267877,-0.4051,0.19399999,0.75079995,1.8761,-9.588799,-0.8391,wlk
2.0384748,-0.4005007,1.1320729,2.6102998,0.84029996,-0.4411,1.734,-9.6466,-0.32369998,wlk
2.113995,-0.88521355,1.038593,2.8523998,-1.8177999,0.6214,1.5800999,-9.6754,0.24149999,wlk
2.081532,-0.96300286,0.9770877,1.8417,-4.8740997,0.6814,1.4336,-9.6691,0.7895,wlk
1.8861948,-1.2862902,0.7513817,1.2228999,-5.6577,-0.8214,1.2483,-9.6406,1.2921,wlk
1.6725664,-1.2972335,0.6391396,1.1256,-3.8693998,-1.5631,1.022,-9.594999,1.7493999,wlk
1.3335712,-1.2765338,0.57173496,1.5109999,-2.2777998,-2.4373,0.7543,-9.5195,2.2312999,wlk
0.8757015,-1.2707044,0.51968926,1.0157,-1.4526,-2.6792998,0.5435,-9.4425,2.5909998,wlk
0.2807013,-1.1358951,0.4437325,-0.1765,-0.585,-2.4605,0.353,-9.3392,2.9703999,wlk
-0.31449088,-0.8975181,0.36315066,0.89519995,1.0285,-2.0626,0.2031,-9.1975,3.3962998,wlk
-0.81051344,-0.64893085,0.25165904,1.7002,1.9664999,-3.0886998,0.1041,-9.0665,3.7359,wlk
-1.2697619,-0.430276,0.089116514,1.6566,2.4873,-3.2984,0.069299996,-8.9204,4.0731,wlk
-1.6747307,-0.34808847,-0.02989749,1.7484,2.8226,-4.2496,0.0657,-8.7655,4.3967,wlk
-1.8948865,-0.46455428,-0.15974998,1.872,3.4213998,-4.8887,0.079399996,-8.6581,4.6043,wlk
-1.6690758,-0.8856848,-0.35754815,1.882,4.1542997,-4.8608,0.1086,-8.5771,4.7528996,wlk
-0.833098,-1.0542836,-0.31529373,1.8398,4.8248,-4.7983,0.141,-8.5514,4.7983,wlk
0.21240658,-0.62182593,-0.04647812,1.8262999,5.1500998,-3.9768,0.1644,-8.582399,4.7418,wlk
0.9142907,0.16720255,0.28588492,1.6228,4.8638,-2.6778,0.1815,-8.658899,4.5999,wlk
0.94364715,-0.3678456,0.44860196,1.2075,3.9287,-1.2976999,0.20449999,-8.7732,4.3768997,wlk
0.38992402,-0.568349,0.37519342,1.4573,2.4129,1.0495,0.2392,-8.9147,4.0792,wlk
-0.24684192,-0.32171655,0.20247565,0.61759996,-0.7349,4.6386,0.3041,-9.0619,3.7361,wlk
-0.72609186,-0.26708773,-0.23659684,-1.7565999,-4.8152,9.617499,0.43269998,-9.1788,3.4252,wlk
-0.4607669,-0.708656,-0.742498,-2.5029,-7.9596996,12.605599,0.56119996,-9.231299,3.2615,wlk
0.6077411,0.14566518,-0.2060012,-0.8066,-7.3858,7.533,0.6105,-9.2168,3.2935,wlk
-1.1672413,2.683723,0.53578115,-0.020399999,-1.1838,2.58,0.5402,-9.1523,3.4803998,wlk
-1.6036085,1.8384076,0.20781635,-0.47039998,4.2025,1.1632,0.48999998,-9.096,3.6320999,wlk
-1.2389394,1.036778,-0.2852217,2.4099,4.1675997,-1.4126999,0.46339998,-9.0709,3.6976,wlk
-1.4676299,1.4528644,-0.15599753,7.1499,-1.4412999,-1.6101999,0.4502,-9.090899,3.6499,wlk
-1.6978214,1.2949121,0.05347689,6.1461997,-7.0892997,2.5061,0.5124,-9.1406,3.5151,wlk
-1.6330696,1.1963359,0.17432348,-3.5707998,-6.0365996,3.0205998,0.6974,-9.1636,3.4222,wlk
-1.339453,0.7413984,0.119083814,-0.3621,3.4206998,-9.2528,0.7249,-9.1182995,3.5354998,wlk
-1.2181525,0.54115677,0.010419616,6.3918,7.9286,-5.0793,0.4139,-9.2132,3.3337998,wlk
-1.3355434,0.7904945,-0.06995279,0.1779,2.3443,-3.2347999,0.2731,-9.307099,3.0779,wlk
-1.3696645,1.152598,-0.11960741,-3.2749999,-3.0783,-4.5357,0.2643,-9.3859,2.8293,wlk
-1.3249143,1.4830586,-0.14041173,-2.0047,-4.4196,-4.6168,0.2199,-9.456699,2.5867999,wlk
-1.3073388,1.6310102,-0.16737707,-0.42139998,-1.4832,-2.9947,0.1468,-9.5393,2.269,wlk
-1.3041973,1.6810138,-0.20059069,0.50409997,0.25959998,-1.9374,0.0548,-9.6151,1.9275999,wlk
-1.2795184,1.8009354,-0.28955013,1.3826,0.85249996,-1.5683,0.0099,-9.658899,1.6956999,wlk
-1.2430409,1.636892,-0.33437017,2.2157,1.2243,-0.42049998,-0.0092,-9.6973,1.4599999,wlk
-1.1208678,1.2060225,-0.37653732,2.1938,0.7107,-0.0334,-0.0167,-9.7328,1.2004,wlk
-0.99630374,0.90041536,-0.3791204,1.6557,0.0143,-0.5701,-0.018,-9.7621,0.93299997,wlk
-0.9192824,0.7516435,-0.33190927,1.0924,-0.0998,-0.726,-0.0137,-9.7852,0.6476,wlk
-0.8528377,0.69163907,-0.33632496,0.0587,0.3539,-0.113,0.0001,-9.7977,0.417,wlk
-0.8599237,0.67443013,-0.35997415,-0.8436,0.82229996,-0.0736,0.0296,-9.8052,0.1619,wlk
-0.89867,0.70157,-0.39229766,-1.556,0.60719997,-0.8545,0.085,-9.8057995,-0.086899996,wlk
-0.8696278,0.7481877,-0.426733,-1.844,0.38549998,-0.49699998,0.1573,-9.7999,-0.3266,wlk
-0.80199623,0.7873704,-0.46677086,-1.7124,0.1095,0.306,0.24139999,-9.7887,-0.5413,wlk
-0.67909014,0.8232893,-0.48827332,-1.2968,0.1126,1.0932,0.3357,-9.7720995,-0.75,wlk
-0.5213124,0.753511,-0.45706683,-0.73859996,0.1261,1.6028,0.4052,-9.7562,-0.9065,wlk
-0.44017205,0.72221726,-0.35138714,-0.6903,0.14549999,1.5274999,0.4843,-9.7364,-1.0665,wlk
-0.4148822,0.83660614,-0.16374679,-0.7953,0.1318,1.2168,0.5697,-9.7129,-1.2267,wlk
-0.36964327,0.9152332,-0.016702801,-0.7132,-0.1024,1.1765,0.6641,-9.6845,-1.3923,wlk
-0.25553367,1.2629027,-0.019181168,-0.8372,-0.31059998,1.4319999,0.7686,-9.6528,-1.5496999,wlk
-0.010559242,1.5661712,-0.12280136,-1.2291,-0.49499997,1.3032,0.89559996,-9.6156,-1.7052,wlk
0.39973277,1.4344862,-0.16477653,-1.8395,-1.2602999,0.6709,1.0059999,-9.5857,-1.8084999,wlk
0.9803863,1.0711086,-0.05417502,-2.2883,-2.0248,0.5193,1.1213,-9.5567,-1.8922,wlk
1.786519,0.5032482,0.1651605,-1.77,-2.0709,1.0996,1.2207999,-9.5303,-1.9626,wlk
2.420126,0.00715585,0.40907028,-0.3504,-2.0022,2.7042,1.282,-9.5107,-2.0177999,wlk
2.8660574,-0.32857567,0.5535137,0.3642,-2.2138,4.5158,1.3224,-9.4952,-2.0641,wlk
3.1318886,-0.33060026,0.5948431,-0.6624,-2.6172,4.4811,1.3783,-9.4842,-2.0785,wlk
2.9845304,-0.042970005,0.60510564,-2.6722,-3.9350998,3.9383998,1.466,-9.4802,-2.0358999,wlk
2.6660602,0.62880725,0.8096059,-3.8976,-5.4344997,3.9074998,1.5538,-9.491099,-1.9167,wlk
2.3914502,0.7429692,0.96349156,-4.2159,-5.0446,3.8808,1.6074,-9.528,-1.6743,wlk
2.3618667,0.36760125,1.023688,-2.6027,-2.5786998,1.5289999,1.5926,-9.5814,-1.3525,wlk
2.250253,0.33374184,0.9099623,0.2708,0.0378,1.5633999,1.5139999,-9.648399,-0.8867,wlk
2.249869,-0.085573494,0.6884102,2.9023,0.9522,0.22389999,1.4027,-9.699699,-0.3416,wlk
2.3399978,-0.30920252,0.4704186,3.0983,-1.7163,0.2214,1.2753999,-9.7181,0.3179,wlk
2.1892538,-0.60985297,0.3342131,2.5467,-5.4802,0.6518,1.1699,-9.700399,0.8387,wlk
1.9990304,-0.7668977,0.19036306,2.6269999,-5.9981,-0.1073,0.98179996,-9.6532,1.4214,wlk
1.7357649,-0.7170511,0.12421508,2.4726999,-3.8072999,-1.2888,0.7928,-9.5982,1.8477999,wlk
1.3133079,-0.6368008,0.17456783,2.7916,-1.5574,-3.0693,0.5818,-9.5142,2.3044,wlk
0.7580663,-0.56927407,0.2249904,2.2642,-0.3301,-2.5997,0.37359998,-9.398,2.7761998,wlk
0.11608185,-0.41805872,0.21500711,1.1301,0.9266,-2.2911,0.26229998,-9.281799,3.1541,wlk
-0.56161207,-0.19940387,0.13133602,1.0293,1.2416999,-3.054,0.1964,-9.1263,3.5835998,wlk
-1.1212867,0.040770892,0.022410028,1.5047,1.4499999,-2.8594,0.182,-8.9619,3.9773998,wlk
-1.544564,0.14236651,-0.10110693,1.3474,1.726,-3.4959,0.2118,-8.796599,4.3294997,wlk
-1.8391232,0.09653416,-0.13976596,1.2461,2.0221,-4.3445997,0.25419998,-8.6416,4.6289997,wlk
-1.9286237,0.030770155,-0.18961257,1.1373,2.9183998,-4.6941,0.2845,-8.518,4.851,wlk
-1.6801412,-0.0104370685,-0.2651155,0.9726,4.0318,-5.1626,0.3022,-8.444799,4.9763,wlk
-0.9759183,0.123447135,-0.1462586,0.8006,4.9041,-4.915,0.3075,-8.4345,4.9934,wlk
0.083514005,0.17697638,-0.03663446,0.74439996,5.2251,-3.8774,0.3049,-8.4908,4.8972,wlk
1.0078055,0.41395718,0.13733996,0.47759998,4.6955,-2.5681,0.297,-8.5985,4.7058997,wlk
1.1052821,-0.15872024,0.1651256,0.0025,3.6789,-0.5262,0.3014,-8.7392,4.4389997,wlk
0.56101865,-0.2788338,0.086236715,0.3572,2.399,2.3308,0.31939998,-8.9106,4.0827,wlk
-0.23280947,-0.15875515,-0.0056897732,-0.3477,-0.1822,5.0645,0.3477,-9.0458,3.7712,wlk
-0.92710143,-0.21664771,-0.14652039,-1.4166,-3.4164999,8.1065,0.3967,-9.1654,3.4652,wlk
-1.4549239,0.18460347,-0.580671,-0.79859996,-6.3494997,10.284699,0.4161,-9.2332,3.2777998,wlk
-1.3139886,0.08208284,-0.93303555,0.4025,-7.0709,7.2578998,0.4114,-9.2277,3.2939,wlk
-0.00572468,0.47136107,-0.38053414,0.5245,-2.1564,2.8623,0.35799998,-9.160399,3.4824998,wlk
-0.40914008,2.3774002,0.43666393,-0.6726,3.1983,1.7594999,0.3391,-9.0823,3.6831,wlk
-1.5778998,2.695312,0.5276654,0.0479,5.3634996,-0.94879997,0.3442,-9.040999,3.783,wlk
-1.1887612,1.491698,-0.17030923,3.1327,3.2449,-1.3327999,0.3584,-9.0602,3.7354,wlk
-1.1364886,1.2331449,-0.44589671,7.8409,-1.8337,-1.4739,0.39659998,-9.1202,3.5823,wlk
-1.4892021,1.588459,-0.18161896,6.1194,-7.5243998,2.7824,0.49019998,-9.2155,3.3172,wlk
-1.673858,1.5826471,0.10669198,-0.8537,-8.4612,6.6432,0.6576,-9.2887,3.0751,wlk
-1.3879032,1.3715321,0.15899949,-3.5626998,-0.9835,-7.1991997,0.6992,-9.283899,3.0804,wlk
-1.2001233,1.1291058,0.044662975,4.3227997,7.1369996,-8.9359,0.4725,-9.314,3.0321999,wlk
-1.2670392,1.0776535,-0.04145157,4.7837,6.1826,-3.8732998,0.21759999,-9.408999,2.7554,wlk
-1.3328556,1.2546997,-0.018657569,-0.3766,0.18439999,-2.8604,0.1707,-9.4713,2.5367,wlk
-1.2606514,1.5049276,-0.050317843,-3.1178,-4.5868,-4.5025,0.1954,-9.5248995,2.3253999,wlk
-1.1588463,1.6178329,-0.054995324,-1.7393999,-3.6789,-3.3899,0.16059999,-9.589399,2.0463998,wlk
-1.0781946,1.7977939,-0.051975906,0.1037,-0.5305,-1.5587,0.0727,-9.6585,1.696,wlk
-1.0057285,1.8828787,-0.10234611,1.8375,0.872,-1.6415,0.0061,-9.698,1.4552,wlk
-0.9088453,1.7300576,-0.14083062,1.7428,0.7109,-1.6984999,-0.036399998,-9.733,1.1983,wlk
-0.85063857,1.5681783,-0.1871342,1.5703,0.67689997,-0.53389996,-0.0503,-9.757899,0.9752,wlk
-0.7808603,1.3076006,-0.24162339,1.3036,0.621,-0.1838,-0.0679,-9.780399,0.7133,wlk
-0.7506661,0.9958849,-0.2865656,0.7039,0.1467,-0.6356,-0.0762,-9.7965,0.4394,wlk
-0.7803018,0.804143,-0.32171655,0.33139998,0.34989998,0.54179996,-0.0764,-9.8035,0.23279999,wlk
-0.82157886,0.7557799,-0.3371627,-0.3312,0.3233,0.5794,-0.0708,-9.8063,0.0187,wlk
-0.84526294,0.6629284,-0.36932912,-1.0210999,0.23349999,0.7299,-0.0477,-9.8048,-0.18069999,wlk
-0.85800385,0.52705455,-0.42540655,-1.4503,0.366,0.811,-0.010799999,-9.8,-0.3599,wlk
-0.8307069,0.56489325,-0.4654095,-1.5203999,0.5251,0.4869,0.0396,-9.792399,-0.5261,wlk
-0.76054466,0.700994,-0.45467573,-1.3087,0.4958,0.6771,0.1025,-9.7827,-0.6771,wlk
-0.65013516,0.7724653,-0.4093146,-1.4678999,0.268,1.2624999,0.1734,-9.770599,-0.82119995,wlk
-0.5436875,0.8135329,-0.33445746,-1.5547999,0.5076,1.1367999,0.2505,-9.7553,-0.9701,wlk
-0.5370029,0.94570667,-0.2080258,-1.0562,0.5256,0.602,0.3403,-9.734,-1.1413,wlk
-0.56813955,1.1705923,-0.06914994,-0.3899,0.25939998,0.7748,0.4193,-9.712999,-1.2847999,wlk
-0.46774822,1.4764962,-0.04150393,-0.26119998,-0.1602,1.4267,0.5162,-9.685599,-1.4462999,wlk
-0.19329521,1.6343437,-0.09817477,-0.5841,-0.22999999,1.3945999,0.62329996,-9.655,-1.6005,wlk
0.2327571,1.4458307,-0.10182251,-1.0579,-0.3498,0.5805,0.73429996,-9.6234,-1.7376,wlk
0.75326663,1.0976375,0.058555797,-1.3407999,-0.97779995,0.1539,0.84059995,-9.593699,-1.8504,wlk
1.4387447,0.5123763,0.34794885,-0.9352,-1.8603,0.85069996,0.945,-9.5644,-1.949,wlk
2.2274415,0.055152405,0.5180661,0.024899999,-2.6873,2.4856,1.0145,-9.5415,-2.0247,wlk
2.764654,-0.28478536,0.46322784,-0.0267,-2.7907,3.8051,1.076,-9.5166,-2.1085,wlk
3.2385283,-0.2523048,0.35316738,-1.2744,-3.1841998,3.7533,1.1468999,-9.4957,-2.1646,wlk
3.2689843,-0.20411626,0.3333928,-3.2368,-4.7444,3.6922,1.2362,-9.485,-2.1624,wlk
2.9613175,0.29513517,0.5862386,-4.5137997,-5.7472,3.8269,1.3168,-9.4923,-2.0813,wlk
2.5691595,0.72033226,0.8629257,-4.6444,-5.5684,3.9584,1.3493999,-9.5239,-1.9088,wlk
2.4430246,0.528573,1.0419616,-2.3796,-2.7429,3.1599,1.3009,-9.5838995,-1.6202999,wlk
2.3888671,0.39109337,0.9578716,1.0037999,-0.0686,2.2689,1.2026,-9.6595,-1.1902,wlk
2.3755326,0.15866788,0.64034384,3.4034998,1.6211,2.3769,1.1074,-9.721399,-0.6608,wlk
2.4163735,-0.4279722,0.4561069,3.1476998,-0.024799999,-0.7039,1.0299,-9.752299,0.027199998,wlk
2.3801754,-0.5662721,0.3930656,1.8714,-4.5188,0.3637,0.97239995,-9.74,0.5972,wlk
2.1904407,-0.641583,0.22614232,1.9832,-6.6850996,-0.4028,0.84099996,-9.691899,1.2363,wlk
1.9250807,-0.7515737,0.13299409,2.3976,-5.2111998,-0.83019996,0.67179996,-9.6359,1.6931,wlk
1.5665202,-0.8141437,0.1728225,3.1575,-2.2048,-2.4328,0.45119998,-9.5533,2.168,wlk
1.0733426,-0.8950921,0.21999875,3.0549,-0.29479998,-3.0033998,0.2302,-9.4333,2.6699998,wlk
0.5331108,-0.874218,0.25343925,0.9158,0.19229999,-2.0711,0.1138,-9.3125,3.0714,wlk
-0.11112511,-0.6824412,0.23729496,0.3051,0.8086,-2.3205,0.057699997,-9.154099,3.517,wlk
-0.7476467,-0.3893655,0.18388788,1.0134,1.6517999,-3.3827999,0.025999999,-8.9578,3.9908,wlk
-1.3187184,-0.12042772,0.05588544,1.1682999,1.8112999,-3.5656998,0.0378,-8.7936,4.3403997,wlk
-1.7218372,-0.074543014,-0.045169123,1.1336,1.9320999,-4.3512,0.0823,-8.6202,4.6748,wlk
-1.9150276,-0.19165461,-0.16334537,1.0993999,2.3351,-4.9672,0.1361,-8.4545,4.9672,wlk
-1.6028405,-0.5353099,-0.36437237,1.0612999,3.2091,-5.3036,0.184,-8.3576,5.127,wlk
-0.8280715,-0.62611943,-0.3444582,1.1015999,4.1061997,-5.3592997,0.232,-8.3035,5.2121997,wlk
-0.332939,-0.3407232,-0.1943424,1.2075,5.0309997,-4.857,0.2634,-8.3162,5.1903996,wlk
-0.09754645,0.39948842,-0.16023868,1.0415,5.2067,-3.7003,0.27249998,-8.3938,5.0634,wlk
0.24343853,0.6077411,-0.10587167,0.539,4.1902,-1.8485999,0.2749,-8.5247,4.8396997,wlk
0.32306045,-0.35679767,-0.13823007,1.0131999,2.9940999,1.0964,0.29099998,-8.7016,4.5129,wlk
-0.082205005,-0.5758365,-0.08016297,0.70769995,0.0937,5.1559,0.3317,-8.851,4.2093,wlk
-0.7536506,0.077422805,-0.11712904,-1.4796,-4.0936,8.28,0.44009998,-8.978499,3.9194,wlk
-1.3813758,0.40372956,-0.40149555,-0.60899997,-5.2985,7.9254,0.55009997,-9.0387,3.764,wlk
-1.0726095,0.044593163,-0.52487284,0.8308,-3.8244998,7.9406,0.6106,-9.061299,3.6998,wlk
-0.19163716,0.9268571,0.06949901,2.1062999,-2.0051,3.9717999,0.6101,-9.0666,3.6871,wlk
-1.0493443,2.876128,0.6635393,0.99469995,0.133,0.98829997,0.584,-9.0472,3.7384,wlk
-1.430402,2.2458897,0.25942573,-0.0376,2.235,-0.24249999,0.6358,-9.0212,3.7925,wlk
-1.1527027,1.168655,-0.39409533,3.2554,1.0636,-1.0622,0.69659996,-9.0266,3.7689,wlk
-1.3544278,1.1386877,-0.33934435,6.2318,-2.8565,-1.2181,0.7112,-9.0781,3.6402998,wlk
-1.5437262,1.4998487,-0.094300136,3.9706998,-6.4525,2.9408,0.756,-9.1694,3.3941998,wlk
-1.471138,1.5354185,0.010349803,-3.3012,-4.8898,3.0491998,0.84959996,-9.2316,3.1975,wlk
-1.2114505,1.132422,0.032742377,-1.6994,1.7429,-7.7862997,0.7776,-9.245,3.1771998,wlk
-1.0962762,0.7713657,0.04761258,5.3294,6.5038,-6.0095,0.47599998,-9.318299,3.0184,wlk
-1.1686027,0.78752744,0.06604326,2.8983,3.2192,-4.3733,0.28869998,-9.4072,2.7552,wlk
-1.1879933,0.9894446,0.023509584,-1.2418,-1.481,-3.3102,0.3003,-9.4630995,2.5551,wlk
-1.1300483,1.1556174,-0.06389651,-2.3000998,-2.7509,-3.3737,0.3094,-9.526899,2.3048,wlk
-1.0820867,1.2272283,-0.13255775,-1.0624,-1.1488,-3.0484,0.2583,-9.599199,1.9892999,wlk
-1.0074389,1.3465914,-0.16838937,-0.5579,-0.1285,-2.6822999,0.2048,-9.6487,1.7408999,wlk
-0.92286026,1.3880429,-0.15041247,-0.15179999,0.009,-2.3737,0.1616,-9.6882,1.5107,wlk
-0.8089252,1.2137718,-0.103515476,0.3989,0.24589999,-1.3296,0.13059999,-9.7191,1.3002,wlk
-0.7604923,1.0882826,-0.08716174,1.4504,0.6171,-0.5351,0.0989,-9.747,1.0745,wlk
-0.74314374,0.97530746,-0.10930997,1.8762,0.6791,-0.4227,0.0753,-9.769899,0.8444,wlk
-0.6882008,0.8673065,-0.12927654,1.1453999,0.39299998,-0.7502,0.0705,-9.7878,0.6031,wlk
-0.63732445,0.81663954,-0.13624041,0.0056,0.3635,0.0958,0.0826,-9.7975,0.41399997,wlk
-0.59534925,0.8210203,-0.14627604,-1.0288,-0.0716,0.1829,0.107,-9.803599,0.2191,wlk
-0.58388245,0.8316843,-0.19551179,-1.3880999,-0.32459998,0.3606,0.1328,-9.8056,0.0414,wlk
-0.6133785,0.7713657,-0.28302258,-1.1248,-0.1391,0.7511,0.1539,-9.8047,-0.113699995,wlk
-0.6490181,0.71026176,-0.36430258,-0.8222,0.092999995,0.7202,0.175,-9.8015995,-0.2592,wlk
-0.6728419,0.7031408,-0.40542254,-0.78139997,0.274,0.80329996,0.20279999,-9.7963,-0.4012,wlk
-0.6870663,0.7986976,-0.38789943,-0.6382,0.2376,1.1599,0.23609999,-9.7893,-0.5323,wlk
-0.609277,0.94026124,-0.32829642,-0.30179998,0.3274,1.3197,0.2724,-9.781,-0.6529,wlk
-0.4972792,1.0396577,-0.26836184,0.14819999,0.7594,0.89199996,0.3126,-9.7718,-0.76449996,wlk
-0.47115162,1.1831412,-0.18006562,0.4103,0.8858,0.2649,0.36429998,-9.7609,-0.87299997,wlk
-0.47773153,1.4008886,-0.09639453,0.30159998,0.3917,0.1529,0.43379998,-9.7472,-0.98649997,wlk
-0.3504621,1.5808145,-0.08937831,-0.0685,-0.12539999,0.4393,0.5196,-9.7301,-1.1062,wlk
-0.14809118,1.664346,-0.1796991,-0.654,-0.1261,0.8073,0.61469996,-9.7098,-1.229,wlk
0.26656413,1.5644433,-0.26099652,-0.789,-0.3942,0.7732,0.7105,-9.686999,-1.3518,wlk
0.8408124,1.1367155,-0.111090206,-0.682,-1.0854,0.7205,0.8095,-9.6626,-1.4657999,wlk
1.5153472,0.5699373,0.21032962,-0.8057,-1.7207999,1.301,0.88409996,-9.6451,-1.5364,wlk
2.1937044,-0.11341149,0.6183003,-0.6421,-2.1606,2.5958998,0.95589995,-9.6269,-1.6054,wlk
2.5912206,-0.3359759,0.82767004,-0.5692,-2.0016,3.6114,1.0203,-9.6094,-1.6696999,wlk
2.9441087,0.017837266,0.73309064,-1.179,-1.7799,4.3416,1.0907,-9.595699,-1.7037,wlk
3.0240622,0.52633893,0.61379737,-2.9861,-3.1129,4.0969,1.1817,-9.586599,-1.6942999,wlk
2.6498287,1.2644212,0.7771602,-4.7156,-5.4838,3.3306,1.2832,-9.5889,-1.6046,wlk
2.172167,1.6363335,0.88521355,-5.5262,-5.7946997,2.5607998,1.3388,-9.6114,-1.4133999,wlk
2.15145,1.2860284,1.1097851,-3.774,-4.1328998,0.5474,1.3125,-9.6552,-1.1063,wlk
2.1123893,0.97734946,1.1076558,1.3613,-1.3475,2.211,1.1784999,-9.7143,-0.64199996,wlk
2.0322962,0.641234,0.8828399,6.226,0.8851,1.9598999,1.0308,-9.750299,-0.19469999,wlk
2.0907648,0.24986133,0.6364518,7.1875997,-0.8136,1.1118,0.87329996,-9.7578,0.4376,wlk
2.0386493,0.016685348,0.42093852,5.6056,-4.197,-0.0736,0.7589,-9.7284,0.9758,wlk
1.8938742,-0.3040887,0.24511404,3.2380998,-5.4782,-1.301,0.5765,-9.672999,1.5069,wlk
1.5540587,-0.21146409,0.1471138,1.7002,-4.7995996,-1.6761,0.3493,-9.6062,1.9409,wlk
1.1491597,-0.21437879,0.13444272,2.0834,-2.8379998,-3.3012998,0.054399997,-9.5084,2.3990998,wlk
0.7235088,-0.42223006,0.080704026,2.4548,-0.69159997,-2.7969,-0.1796,-9.4092,2.7577,wlk
0.21043435,-0.4922701,-0.01665044,1.9614999,1.1449,-2.4573,-0.38259998,-9.2844,3.1339998,wlk
-0.29242992,-0.455688,-0.19142771,2.1445,2.02,-2.9187,-0.5166,-9.1397,3.5168998,wlk
-0.76483816,-0.3191509,-0.3784223,1.5160999,2.2665,-2.8172998,-0.5943,-8.984,3.8862,wlk
-1.1007792,-0.115523346,-0.55028486,1.0957,2.2798,-2.7017,-0.61509997,-8.811,4.2609997,wlk
-1.2642118,0.12292354,-0.605734,1.4356999,2.4105,-3.4489,-0.6217,-8.6868,4.5081,wlk
-1.3830338,0.107041046,-0.5673018,1.8118999,2.96,-4.003,-0.6253,-8.5792,4.7091,wlk
-1.4366678,-0.032410763,-0.58739054,1.7267,3.6058,-4.3181,-0.59889996,-8.5091,4.8378,wlk
-1.190524,-0.042655848,-0.65285784,1.8133999,4.3701,-3.8397,-0.5484,-8.4889,4.8792,wlk
-0.48815113,-0.13503613,-0.62140703,1.5209999,4.4298997,-2.8530998,-0.4716,-8.5192995,4.8341,wlk
0.4436976,-0.12316789,-0.41680208,0.77889997,3.8270998,-1.2997999,-0.36699998,-8.603,4.6928997,wlk
1.1121238,0.11231194,-0.12891002,0.39929998,3.0291998,0.0084999995,-0.2719,-8.6975,4.5221,wlk
0.98042125,0.013177236,-0.03211406,0.3434,2.2510998,1.015,-0.1767,-8.8117,4.3001,wlk
0.46239007,0.048624873,-0.014084807,0.0165,0.98539996,2.9866998,-0.085099995,-8.9288,4.0544,wlk
-0.15423475,-0.13533282,0.0055152406,0.15359999,-0.92149997,5.4318,0.022799999,-9.042,3.7961998,wlk
-0.70603806,-0.18786724,-0.08339183,0.72819996,-3.3844,6.3150997,0.1445,-9.128699,3.5797,wlk
-1.2366705,0.20725785,-0.32354912,1.0856,-5.5099,8.160399,0.2676,-9.1607,3.4898,wlk
-1.4136993,0.6513569,-0.46614254,1.4911,-4.5436,5.2949,0.3525,-9.1268,3.5702,wlk
-0.4667883,0.6207089,-0.266983,0.8581,-0.37989998,2.2970998,0.3676,-9.0442,3.7731,wlk
-0.17690657,1.8672056,0.25336945,0.029199999,2.7038,0.4946,0.3728,-8.9605,3.9673,wlk
-1.3023821,2.667474,0.32686526,0.44239998,3.553,-1.257,0.3715,-8.9271,4.0421,wlk
-1.3895439,1.6594067,-0.2693043,2.3448,2.5358,-1.3264999,0.3814,-8.9396,4.0134997,wlk
-1.2581555,0.9754645,-0.6557202,4.2862,-0.58629996,-1.2964,0.4111,-8.9946995,3.8853,wlk
-1.3695076,1.328597,-0.4897394,4.0276,-4.7321997,1.4161999,0.45389998,-9.085199,3.6634998,wlk
-1.5515802,1.4065957,-0.13025393,0.5269,-8.118,6.7482,0.49289998,-9.1809,3.4113998,wlk
-1.4649421,1.1203792,-0.033318337,-2.1966999,-2.9503999,-1.2624999,0.5001,-9.2097,3.3316998,wlk
-1.186981,0.6560693,-0.060144044,3.7501998,5.6440997,-8.365,0.3292,-9.223599,3.3146,wlk
-1.1867366,0.6639407,-0.19701277,5.9625998,6.8959,-4.8986998,0.097799994,-9.3083,3.0844998,wlk
-1.2444896,0.82056653,-0.30358258,0.9403,1.6035999,-2.8467,0.049999997,-9.3901,2.8271,wlk
-1.2264603,1.0125004,-0.40917498,-3.2687,-4.2915998,-3.1701,0.120699994,-9.4572,2.5915,wlk
-1.2064239,1.2208054,-0.4182507,-3.0019,-4.6177,-4.5024,0.14819999,-9.523399,2.3351,wlk
-1.2110316,1.4618005,-0.4142888,-1.0823,-1.0982,-3.1306,0.1114,-9.591,2.0421,wlk
-1.13689,1.4439458,-0.43919465,0.1699,0.86969995,-1.37,0.0752,-9.6467,1.7623,wlk
-1.0263758,1.1772245,-0.43221334,0.80759996,1.4578999,-1.2688999,0.0651,-9.685699,1.5337,wlk
-0.956039,0.85224426,-0.42453387,2.0022,0.93539995,-0.487,0.0866,-9.722099,1.2814,wlk
-0.92029464,0.58009505,-0.43593088,2.29,0.4904,-0.0841,0.12239999,-9.7478,1.0648,wlk
-0.8782497,0.23151793,-0.42818162,1.0819,0.2083,-0.63229996,0.183,-9.7698,0.8285,wlk
-0.7840019,0.09046041,-0.36573374,0.20359999,0.2826,-0.5487,0.2474,-9.7852,0.5977,wlk
-0.7279768,0.1269029,-0.28618163,-0.90279996,0.3998,-0.7414,0.3144,-9.7946,0.36879998,wlk
-0.7172605,0.20511109,-0.2647141,-2.0093,0.1183,-0.7725,0.401,-9.7975,0.13499999,wlk
-0.68973666,0.20959659,-0.3117158,-2.0158,0.1354,-0.2771,0.4761,-9.795,-0.036599997,wlk
-0.66989225,0.20827013,-0.34286994,-1.4244,0.099199995,-0.078999996,0.5614,-9.788199,-0.21509999,wlk
-0.6471157,0.18341665,-0.39605013,-1.4641,-0.1371,0.6235,0.6502,-9.7773,-0.38819999,wlk
-0.56426495,0.19980529,-0.5178915,-1.9999,-0.3687,1.9168999,0.7446,-9.761499,-0.57339996,wlk
-0.4306949,0.26101398,-0.58081067,-1.9571999,-0.13769999,2.171,0.8099,-9.7473,-0.7098,wlk
-0.27916542,0.3574609,-0.4715356,-1.4951999,0.14999999,1.6047,0.8675,-9.7311,-0.84959996,wlk
-0.1650907,0.35990435,-0.29056242,-0.9228,-0.0149,0.88729995,0.9228,-9.7132,-0.98539996,wlk
-0.023579398,0.41912335,-0.24446827,-0.4581,0.0234,0.625,0.98759997,-9.6928,-1.1152999,wlk
0.26234043,0.49254936,-0.30658454,0.3238,-0.009099999,0.65239996,1.0589,-9.67,-1.2408,wlk
0.7082372,0.3564137,-0.39894736,0.5563,-0.4367,0.793,1.1401,-9.6444,-1.3618,wlk
1.433788,-0.008744099,-0.3937812,-0.3335,-1.4555,0.96559995,1.2455,-9.616099,-1.4656999,wlk
2.2676713,-0.36374408,-0.27368507,-1.9629999,-2.5133,1.4632,1.3648,-9.587999,-1.5417,wlk
2.8260546,-1.0216634,-0.024731316,-2.1134999,-3.0944,2.2911,1.4663,-9.5659,-1.5850999,wlk
3.1649103,-1.2825029,0.36606535,-1.7196,-2.824,4.0673,1.5332999,-9.5519,-1.6058999,wlk
3.1435823,-1.3316687,0.7119722,-2.0897,-2.3723,4.7051,1.5993999,-9.5427,-1.5963999,wlk
2.8324773,-0.9463524,0.88891363,-3.3134,-2.6680999,4.7535,1.6659,-9.5411,-1.5368999,wlk
2.485593,-0.6163979,1.0998541,-4.5864997,-4.0536,4.7826,1.7523999,-9.5482,-1.3895,wlk
2.2718775,-0.76368624,1.3371665,-5.2205,-4.2475,3.0377998,1.8274,-9.57,-1.1157,wlk
2.159269,-1.0069503,1.4523932,-4.3347,-3.6869998,0.1943,1.8731999,-9.6009,-0.69439995,wlk
2.0151396,-1.1434176,1.4555522,-2.2612,-2.1625,-0.57559997,1.8689,-9.625,-0.1892,wlk
1.9336852,-1.2500397,1.3307961,-0.48659998,-1.6645,-2.9524999,1.8007,-9.6326,0.3733,wlk
1.8803304,-1.6399812,1.3572378,-0.43539998,-3.3674998,-2.0503,1.6809,-9.6164,0.9323,wlk
1.817359,-1.9385896,1.3877811,-0.96379995,-5.1323,-1.4456999,1.5325999,-9.5776,1.4456999,wlk
1.6767029,-2.2315955,1.3696645,-1.0782,-4.9093,-1.7362,1.3429999,-9.526,1.9029,wlk
1.4231764,-2.5602932,1.4400188,-0.7387,-2.9422,-3.1295,1.1212,-9.4630995,2.3156,wlk
1.0550516,-2.6629186,1.5395724,-0.2898,-1.717,-3.5358999,0.89779997,-9.3841,2.7022998,wlk
0.6207438,-2.5537658,1.542365,-0.2112,-0.8587,-3.1978,0.6917,-9.2911,3.0605,wlk
0.16393878,-2.3676438,1.4359696,-1.2521,-0.5262,-4.0008,0.5265,-9.1823,3.4025998,wlk
-0.23460716,-2.071671,1.2573875,-0.886,0.5779,-4.1521997,0.39569998,-9.060699,3.7305,wlk
-0.47773153,-1.6495631,0.94865626,-0.6398,0.9267,-4.8777,0.29659998,-8.9289,4.0441,wlk
-0.59651864,-1.3912194,0.6111445,-0.2699,0.6563,-5.467,0.24049999,-8.795899,4.3294,wlk
-0.7423758,-1.1696324,0.34548792,0.46989998,0.7716,-5.3901997,0.2165,-8.675799,4.5664997,wlk
-0.9349554,-1.1455992,0.10197959,1.6365,1.4843999,-5.1763,0.1972,-8.5746,4.7546,wlk
-1.0709864,-1.2108221,-0.12571606,2.5261998,2.0047998,-4.8317,0.1803,-8.526199,4.8415,wlk
-1.0971489,-1.3371316,-0.26806512,3.1508,2.6302,-4.0199,0.1637,-8.5141,4.8633,wlk
-0.85210466,-1.5693651,-0.34376004,4.1047997,3.5563998,-3.1739,0.1512,-8.538199,4.8213997,wlk
0.011536626,-1.5319977,-0.18219492,4.0999,4.0069,-2.4988,0.1463,-8.586599,4.7346997,wlk
1.004629,-1.2146618,0.3679154,3.6436,3.8881998,-1.5188,0.17109999,-8.6444,4.6275,wlk
1.0352595,-1.2129864,0.9824633,3.3767,3.2972,-0.5678,0.22219999,-8.7203,4.4807,wlk
0.48600438,-1.0513165,1.1257373,1.939,2.1165,0.8989,0.2969,-8.7949,4.328,wlk
-0.24820328,-0.9527403,1.0139315,0.0492,0.5783,2.0284998,0.42139998,-8.8845,4.1299,wlk
-1.0535331,-0.6613227,0.68926543,-1.5379,-1.8169999,5.1110997,0.5768,-8.9702,3.9206998,wlk
-1.1290361,-0.58051395,-0.010716322,-4.0933,-6.7871,9.6985,0.759,-9.0309,3.7463999,wlk
0.4189663,-0.36419785,-0.08025024,-5.8585997,-10.0468,7.7114997,0.90629995,-9.026999,3.7229998,wlk
0.46834165,1.6431751,0.19671606,-5.0933,-4.0631,3.5461,0.9353,-8.9503,3.8971,wlk
-1.1549019,1.4907206,-0.22828907,-2.5607,2.9591,0.6634,0.8641,-8.8921995,4.0436997,wlk
-1.6991653,0.34707618,-0.80517274,-0.26929998,5.203,-3.0344,0.74979997,-8.8707,4.1131,wlk
-1.727108,1.1017041,-0.46460664,4.0696,1.2363,-4.4088,0.6473,-8.9051,4.0557,wlk
-1.9241208,1.6939992,0.18216002,8.4066,-5.9287,-1.1425999,0.5762,-8.9969,3.859,wlk
-1.4859908,0.36281905,0.49921653,3.3205,-8.9822,7.2177,0.6217,-9.0816,3.648,wlk
-1.0849664,-0.89840823,0.34039158,3.7106,0.459,-1.2774999,0.663,-9.0496,3.7192998,wlk
-1.2377526,-0.65910614,-0.15392059,9.6855,8.742,-11.2174,0.5035,-9.0166,3.8230999,wlk
-1.3073913,-0.33262485,-0.44376743,2.9984999,6.286,-5.295,0.43379998,-9.1005,3.6279,wlk
-1.3161528,-0.034801867,-0.46616,-9.2877,-4.1651,-3.152,0.5696,-9.2209,3.2893,wlk
-1.3448634,0.23820254,-0.3299545,-9.8813,-9.1125,-10.4657,0.5846,-9.314099,3.0126,wlk
-1.3667673,0.6186494,-0.23586379,-3.3471,-3.3330998,-5.1507,0.45409998,-9.4253,2.6696,wlk
-1.3482842,0.6062925,-0.2502802,2.8962998,1.8822999,0.0001,0.32999998,-9.5119,2.3632,wlk
-1.3011255,0.41123447,-0.34051374,4.0361,3.0563,-0.5439,0.3082,-9.5581,2.1718,wlk
-1.1918155,0.34126422,-0.3806214,3.7343998,1.6546999,-0.6847,0.3647,-9.6079,1.9301,wlk
-1.0532014,0.15514232,-0.4197866,2.0876,0.16239999,-0.3752,0.4718,-9.6553,1.65,wlk
-1.0001959,0.05597271,-0.46162212,-0.31849998,-0.2271,-0.6949,0.5539,-9.6873,1.4205999,wlk
-1.0321354,-0.013788101,-0.40854666,-0.71959996,0.26459998,-0.6917,0.6117,-9.7182,1.1624,wlk
-1.0341774,-0.014433873,-0.33541736,-0.7037,0.75079995,-0.8846,0.6448,-9.7435,0.90419996,wlk
-1.0370048,0.14496705,-0.2981895,-1.3707,0.6507,-0.5708,0.6842,-9.7611,0.6493,wlk
-1.0180855,0.3623129,-0.27916542,-1.6843,0.1697,0.1042,0.7527,-9.7704,0.3762,wlk
-0.9772622,0.4643274,-0.30785862,-0.75909996,0.2487,0.0932,0.8179,-9.7709,0.1714,wlk
-0.86315256,0.42559853,-0.40896556,-0.37989998,0.3214,0.19829999,0.8997,-9.7652,-0.0315,wlk
-0.6543065,0.35194564,-0.50089204,-0.8134,-0.3272,0.4218,0.9899,-9.7539,-0.22569999,wlk
-0.4897743,0.35088098,-0.47858673,-1.0596,-0.5385,1.2313,1.0694,-9.7387,-0.4272,wlk
-0.40694097,0.31789428,-0.40022144,-1.2587,0.1863,1.4138,1.1409999,-9.7183,-0.6489,wlk
-0.42336452,0.21603686,-0.24013986,-0.9891,0.42119998,0.9447,1.1949999,-9.698299,-0.82699996,wlk
