rotationRate.x,rotationRate.y,rotationRate.z,userAcceleration.x,userAcceleration.y,userAcceleration.z,gravity.x,gravity.y,gravity.z,class
0.06277949,-0.07283259,0.07871435,-0.1846,-0.2758,0.2331,1.5085,-9.6876,0.20809999,std
0.0964818,0.056531213,0.042044982,0.20359999,-0.7743,0.1688,1.3751,-9.7088995,0.12529999,std
0.0694292,-0.059445914,-0.10845476,-0.33789998,-0.9101,0.2313,1.2205,-9.73,0.0824,std
-0.038030725,-0.081122905,-0.31403708,-0.4107,-0.99219996,0.106,1.0873,-9.7459,0.060599998,std
-0.04298746,0.000715585,-0.35889205,-0.1312,-1.0684999,0.0197,0.97459996,-9.757899,0.0488,std
0.035430185,-0.0707731,-0.1564164,-0.2395,-1.2375,-0.47399998,0.8965,-9.7654,0.0425,std
0.0312763,-0.022514747,-0.096621424,-0.7571,-1.0466,0.227,0.8454,-9.7699995,0.037699997,std
0.031258848,0.09707521,-0.08147197,-0.82909995,-1.1432999,-0.056199998,0.82909995,-9.7713995,0.0464,std
0.019425515,0.10920525,-0.07641052,-0.1319,0.3284,-0.2805,0.81839997,-9.7722,0.0648,std
0.044436082,0.055466563,-0.10697123,-0.6604,0.47379997,0.080699995,0.8369,-9.7705,0.0761,std
0.05108579,0.042586032,-0.099571034,-0.6306,0.40989998,0.1594,0.8954,-9.7654,0.066,std
0.025795966,0.018779743,-0.03234095,-0.3446,-0.2338,-0.0565,0.96239996,-9.7591,0.0565,std
0.015707964,0.0076794485,0.0024958209,-0.94079995,1.1951,0.2722,0.9898,-9.7563,0.061199997,std
0.034417894,0.017610373,-0.002635447,-1.0540999,-0.5912,-0.0659,1.0051,-9.7547,0.0659,std
0.08798204,-0.017051866,-0.048363075,-0.87,-0.514,-0.34759998,1.0171,-9.7534,0.073,std
0.12712978,-0.028536133,-0.09119345,-0.8513,-0.28959998,-0.3329,1.0278,-9.752299,0.0779,std
0.13917255,-0.031066861,-0.13569935,-0.90709996,-0.2228,-0.34149998,1.0444,-9.7504,0.0865,std
0.114476144,-0.012426744,-0.10754719,-0.775,-0.8031,-0.3706,1.0594,-9.7487,0.096,std
0.10670943,-0.018168878,-0.0898321,-0.30629998,-0.22479999,-0.119799994,1.0613999,-9.7485,0.1002,std
0.09843657,-0.010698868,-0.08407251,-0.20369999,-0.1557,0.0448,1.0569,-9.748899,0.102199994,std
0.08803441,0.0045727626,-0.093654364,-0.014099999,-0.175,-0.0591,1.0536,-9.7492,0.1081,std
0.086132,0.0050963615,-0.096272364,-0.0004,0.0104,-0.1434,1.0595,-9.7484,0.123799995,std
0.09536479,-0.02401573,-0.10381218,-0.1813,-0.0502,-0.4506,1.0737,-9.7465,0.1466,std
0.10316641,-0.042917646,-0.111666165,-0.3708,-0.2395,-0.20099999,1.0964999,-9.7436,0.1716,std
0.10770427,-0.032375857,-0.11575024,-0.2704,-0.1732,-0.1432,1.1137999,-9.7411995,0.19219999,std
0.11046189,-0.03345796,-0.10752974,-0.2157,-0.13599999,-0.0150999995,1.1278,-9.7392,0.2112,std
0.11011282,-0.06159267,-0.08340929,-0.0327,-0.0398,0.124,1.1408,-9.7373,0.22899999,std
0.10550515,-0.08485791,-0.057002455,0.22659999,-0.0616,0.1078,1.1560999,-9.7351,0.2452,std
0.11506956,-0.10634291,-0.035639625,0.2987,-0.063999996,0.0526,1.1722,-9.7328,0.2611,std
0.1264142,-0.107302845,-0.019809486,0.3003,-0.1353,0.0257,1.1902,-9.7301,0.2783,std
0.13768902,-0.084596105,-0.021956243,0.21169999,-0.0892,0.026999999,1.2102,-9.727099,0.2965,std
0.13199925,-0.06843436,-0.038920842,0.0046,-0.1513,-0.1099,1.231,-9.7239,0.3159,std
0.110845864,-0.061103977,-0.052604225,-0.1519,-0.20349999,-0.12,1.2502999,-9.720799,0.3357,std
0.0895703,-0.052516956,-0.07695156,-0.2059,-0.2943,-0.0312,1.2651,-9.7182,0.3548,std
0.0649437,-0.05757841,-0.09630727,-0.1276,-0.3355,0.0589,1.2749,-9.7162,0.3725,std
0.03754203,-0.06372197,-0.10758209,-0.015899999,-0.1899,0.3143,1.281,-9.7147,0.3917,std
0.023666665,-0.091996305,-0.11271336,0.0299,-0.0245,0.4497,1.2840999,-9.7134,0.4132,std
0.013177236,-0.13919,-0.118246056,0.075399995,0.0229,0.4251,1.2875999,-9.7118,0.4378,std
0.0052883476,-0.16667895,-0.114947386,0.1274,0.0208,0.45009997,1.2945,-9.7098,0.46179998,std
0.008726646,-0.18236946,-0.10019935,-0.0683,0.096999995,0.4102,1.3039,-9.7076,0.48209998,std
0.011728613,-0.20090485,-0.08192576,-0.1609,0.0453,0.325,1.318,-9.7048,0.4987,std
0.012252212,-0.18528415,-0.077178456,-0.2003,0.0223,0.25329998,1.3378999,-9.7014,0.5115,std
0.0047472958,-0.1412146,-0.07695156,-0.2184,-0.0393,0.12019999,1.3558999,-9.6986,0.5172,std
0.0012042772,-0.11878711,-0.07586946,-0.2593,-0.071899995,0.137,1.3773,-9.695499,0.52,std
8.726646e-05,-0.07644542,-0.06853908,-0.29189998,-0.104499996,0.1964,1.4001,-9.6922,0.5194,std
-0.0033161256,-0.04024729,-0.06620034,-0.2155,-0.2056,0.1498,1.4217,-9.689199,0.5169,std
-0.016423548,-0.0018151425,-0.05618215,0.0106999995,-0.1494,0.112799995,1.4405999,-9.6865,0.5148,std
-0.023841197,0.023945916,-0.044977136,0.0733,-0.073199995,0.1934,1.4564999,-9.684299,0.5126,std
-0.029024825,0.049706977,-0.0376293,0.2148,-0.0657,0.17559999,1.4718,-9.682099,0.5108,std
-0.030822514,0.08040732,-0.035587262,0.1996,-0.0777,0.20709999,1.487,-9.6798,0.5087,std
-0.029653143,0.108542025,-0.03817035,0.3217,-0.0799,0.1406,1.5022,-9.6776,0.50659996,std
-0.029286625,0.12705997,-0.04152138,0.41579998,-0.1114,0.1222,1.5159999,-9.6755,0.5053,std
-0.021816615,0.12758356,-0.03890339,0.4712,-0.093899995,0.113199994,1.5293,-9.6735,0.5045,std
-0.011292281,0.1004437,-0.0339292,0.4991,-0.0955,0.19389999,1.5406,-9.6718,0.50229996,std
-0.0013788101,0.073705256,-0.018971728,0.4899,-0.12629999,0.2358,1.5497999,-9.6705,0.4996,std
-0.0016755161,0.04166101,-0.011239921,0.4331,-0.0783,0.2093,1.5575,-9.6694,0.4967,std
-0.0040317103,0.008970993,-0.011623893,0.43559998,-0.0402,0.1723,1.5648999,-9.6683,0.4944,std
-0.010035643,-0.024085544,-0.014276793,0.3592,-0.13939999,0.13419999,1.5726,-9.6671,0.4933,std
-0.021293016,-0.05609488,-0.012810716,0.1648,-0.17999999,0.0857,1.5806999,-9.6658,0.4928,std
-0.028099801,-0.06370452,-0.007819075,-0.0385,-0.191,0.1143,1.5879999,-9.664599,0.49359998,std
-0.028885199,-0.044436082,-0.0036826448,-0.21159999,-0.1627,0.121999994,1.5942999,-9.6634,0.4957,std
-0.020228365,-0.024137903,-0.0053407075,-0.2444,-0.1635,0.0308,1.5977,-9.6627,0.4987,std
-0.012863076,-0.0029670596,-0.007278023,-0.2855,-0.0756,-0.0103,1.5996,-9.6623,0.5007,std
-0.010821042,0.023579398,-0.013404129,-0.3071,-0.0858,-0.04,1.6015999,-9.6619,0.501,std
-0.016388642,0.050160762,-0.019896753,-0.19209999,-0.1449,-0.0379,1.6042999,-9.6616,0.49879998,std
-0.022602014,0.05660103,-0.024644049,-0.0084999995,-0.1451,-0.0325,1.607,-9.6614,0.49339998,std
-0.027838001,0.052988198,-0.02232276,0.107099995,-0.1451,0.0138,1.609,-9.6615,0.4863,std
-0.031660274,0.053092916,-0.016598081,0.17459999,-0.1449,0.0694,1.6100999,-9.6616,0.4797,std
-0.032009337,0.03981096,-0.011920598,0.2026,-0.115499996,0.0835,1.6114999,-9.6616,0.4754,std
-0.025115287,0.027401669,-0.008761553,0.1911,-0.1157,0.016999999,1.6132,-9.6614,0.4732,std
-0.01860521,0.019338248,-0.0044331364,0.1295,-0.1161,-0.0504,1.6159999,-9.660999,0.4721,std
-0.014713125,0.005253441,-0.0013264503,0.0376,-0.1363,-0.0686,1.6195999,-9.6605,0.4707,std
-0.00991347,-0.0006806784,0.0067195175,-0.0354,-0.1467,-0.017099999,1.6241,-9.6598,0.4682,std
-0.00991347,0.0047996556,0.00986111,-0.0687,-0.1472,-0.0037,1.6279999,-9.6594,0.4646,std
-0.010559242,0.023561945,0.0067020645,-0.081199996,-0.14739999,0.0495,1.6306,-9.6591,0.4603,std
-0.012479104,0.042498767,-0.00012217305,-0.112399995,-0.1475,0.1131,1.6323999,-9.658999,0.4556,std
-0.012234758,0.050527282,-0.0056374134,-0.103999995,-0.12799999,0.1564,1.6337999,-9.658999,0.4516,std
-0.016318828,0.050160762,-0.014119714,-0.0651,-0.12789999,0.1586,1.6341,-9.658999,0.4493,std
-0.022183135,0.047577675,-0.013404129,0.0133,-0.1768,0.1609,1.6341,-9.6591,0.447,std
-0.024923302,0.022375122,-0.010576695,0.0442,-0.15689999,0.16229999,1.6326,-9.6595,0.4456,std
-0.022113321,-0.0085870195,-0.002024582,0.1051,-0.1467,0.11449999,1.6306,-9.6599,0.44439998,std
-0.01792453,-0.03806563,0.0022863813,0.038,-0.117,0.066199996,1.629,-9.6602,0.4436,std
-0.011309734,-0.06426302,0.0060562924,-0.0007,-0.1463,0.0276,1.6286,-9.660299,0.443,std
-0.0051138145,-0.08777261,0.01144936,-0.11889999,-0.1267,0.047599997,1.6291,-9.6602,0.4427,std
-0.00036651915,-0.105086274,0.018797196,-0.2676,-0.1074,0.019199999,1.6308,-9.66,0.44169998,std
0.0020071287,-0.119240895,0.017645279,-0.377,-0.1565,0.0117999995,1.6322,-9.6598,0.43919998,std
-0.00019198621,-0.11782718,0.015655603,-0.4269,-0.1859,0.0352,1.6330999,-9.6598,0.43539998,std
-0.0017976891,-0.1028348,0.012234758,-0.4164,-0.166,0.0297,1.6323999,-9.6602,0.4312,std
-0.002391101,-0.08349655,0.008185594,-0.3463,-0.2048,0.0733,1.6309999,-9.6606,0.4267,std
-0.001012291,-0.050160762,0.006038839,-0.2952,-0.22389999,0.067499995,1.6288999,-9.661099,0.42279997,std
-0.0024609142,-0.010855948,0.0035430184,-0.2041,-0.20359999,0.031799998,1.6259999,-9.661799,0.4192,std
-0.006213372,0.022235494,-0.0002443461,-0.0431,-0.144,-0.0041,1.622,-9.6626,0.4159,std
-0.008813913,0.050632,-0.0037873646,0.087699994,-0.103999995,0.0187,1.6186,-9.6633,0.4127,std
-0.012426744,0.06627015,-0.0049218284,0.1982,-0.0936,0.032199997,1.6158999,-9.663899,0.40899998,std
-0.010506882,0.07113962,-0.004537856,0.259,-0.1226,0.0357,1.614,-9.6644,0.4055,std
-0.0010995574,0.06963864,-0.0017104227,0.29909998,-0.1223,0.019,1.6130999,-9.664599,0.4025,std
0.0013613568,0.060824726,-0.002635447,0.30949998,-0.122099996,0.0011,1.6125,-9.6648,0.40089998,std
-0.00033161257,0.051138148,-0.0047647487,0.2607,-0.122099996,-0.0079,1.6122999,-9.6649,0.4001,std
-0.0058119465,0.027576203,-0.0046251225,0.16229999,-0.11229999,-0.0075,1.6126,-9.6648,0.3997,std
-0.0065973448,0.004886922,-0.0016057029,0.0537,-0.1418,-0.0074,1.6133,-9.6647,0.3997,std
-0.004834562,-0.0052010813,0.0028972465,-0.0254,-0.1812,0.0025,1.614,-9.664599,0.39949998,std
-0.0016929694,-0.0013089969,0.0022514747,-0.114099994,-0.1813,0.0218,1.6144999,-9.664499,0.3998,std
0.00041887903,0.0027925267,0.00022689281,-0.1628,-0.14209999,0.0001,1.6142,-9.664499,0.40179998,std
0.0035430184,0.009250245,-0.0020594886,-0.2214,-0.13229999,-0.0117999995,1.6139,-9.6644,0.4041,std
0.0058817593,0.014224433,-0.0021293017,-0.2509,-0.1422,-0.0624,1.614,-9.6643,0.40559998,std
0.0060039326,0.021711895,-0.0022514747,-0.2118,-0.152,-0.0327,1.6141,-9.6643,0.4053,std
0.0063704518,0.03424336,-0.0020769418,-0.15259999,-0.1519,0.0174,1.6137999,-9.6644,0.4042,std
0.006544985,0.040997785,-0.0033859387,-0.092599995,-0.16149999,0.0186,1.6127,-9.6647,0.403,std
0.0045204028,0.04075344,-0.005270894,-0.0327,-0.14999999,0.0251,1.6017,-9.6664,0.40629998,std
0.004363323,0.033702306,-0.0073827426,0.0174,-0.1399,-0.0026999998,1.6006,-9.6666,0.4048,std
0.0067195175,0.02794272,-0.0054803337,0.035299998,-0.1501,-0.0131,1.6022999,-9.6663,0.40539998,std
0.006789331,0.024923302,-0.0029496064,0.024,-0.1504,-0.0047999998,1.6037999,-9.665999,0.4069,std
0.010786135,0.019460421,8.726646e-05,0.012999999,-0.1408,0.0034999999,1.6049999,-9.6657,0.40829998,std
0.013159783,0.015463617,-0.00041887903,-0.0074,-0.14109999,0.0011999999,1.6058999,-9.6655,0.41059998,std
0.014538593,0.012095132,-0.0016755161,-0.0279,-0.1413,0.0088,1.6068,-9.665299,0.41279998,std
0.014119714,0.008115781,-0.0039095376,-0.078,-0.1612,0.0067999996,1.6078999,-9.665,0.4148,std
0.0073652896,0.0028797933,-0.0063529983,-0.099,-0.1419,0.0442,1.6092,-9.6647,0.4166,std
0.0020071287,0.005550147,-0.0090233525,-0.1195,-0.1519,0.0616,1.6101999,-9.6644,0.4188,std
-0.0006457718,0.0037350047,-0.008639379,-0.0611,-0.1521,0.0497,1.6105,-9.6643,0.421,std
-0.00015707963,0.0094945915,-0.007120943,-0.0412,-0.1522,0.0665,1.6103,-9.6642,0.42369998,std
0.0011693706,0.009878564,-0.0063704518,-0.0411,-0.1425,0.033999998,1.6100999,-9.6641,0.42679998,std
0.0044505894,0.0082205,-0.004310963,-0.021499999,-0.122999996,0.0013,1.6101999,-9.663899,0.4301,std
0.0069987704,0.0063355453,-0.0019373155,-0.0221,-0.1232,-0.0212,1.6107999,-9.6637,0.4331,std
0.0065973448,0.008150687,-0.004066617,-0.0036,-0.1235,-0.0032,1.6119,-9.6634,0.4346,std
0.0077318083,0.006126106,-0.0055676005,-0.024699999,-0.123799995,0.0354,1.6134,-9.663199,0.43519998,std
0.0055152406,0.0037175512,-0.0044854963,-0.0458,-0.1338,0.0647,1.6149,-9.6629,0.4353,std
0.0038397242,0.0036826448,-0.003106686,-0.0469,-0.14379999,0.0447,1.6159999,-9.6627,0.4357,std
0.0026529005,-0.0004363323,-0.00095993106,-0.028299998,-0.1538,0.0539,1.6169,-9.662499,0.43629998,std
0.0018675023,1.7453292e-05,-0.002635447,-0.0092,-0.1442,0.0624,1.6175,-9.662399,0.4376,std
0.00085521134,0.004310963,-0.004694936,-0.029,-0.1443,0.080299996,1.6176,-9.6623,0.4393,std
3.4906585e-05,0.0042935098,-0.00710349,-0.0393,-0.1444,0.0492,1.6180999,-9.6621,0.4411,std
-0.00031415926,0.0056897732,-0.005969026,-0.0499,-0.1349,0.0473,1.6189,-9.6619,0.4429,std
0.00029670598,0.007592182,-0.003630285,-0.0407,-0.14479999,0.0166,1.6194999,-9.661699,0.4443,std
1.7453292e-05,0.010419616,-0.003159046,-0.0116,-0.115499996,0.0352,1.6199,-9.6616,0.44529998,std
-0.0013962634,0.011658799,-0.00408407,0.0101,-0.1252,0.0295,1.6177,-9.661699,0.4509,std
-0.002565634,0.009808751,-0.0036826448,0.0191,-0.1059,0.0165,1.6185,-9.6614,0.45409998,std
-0.0029496064,0.0071383966,-0.0035604716,0.0278,-0.1354,0.027199998,1.6195999,-9.6613,0.4533,std
-0.0038048178,0.006021386,-0.0023387412,0.0067999996,-0.1356,0.027999999,1.6209999,-9.661099,0.4524,std
-0.002024582,0.007819075,-0.0023387412,-0.023699999,-0.14559999,0.0385,1.6222,-9.6609,0.4518,std
-0.0014486233,0.0053407075,-0.0020594886,-0.014599999,-0.1457,0.0486,1.6229,-9.6608,0.45139998,std
-0.0014835298,0.003944444,0.0002443461,0.0044,-0.13599999,0.0389,1.6234,-9.6608,0.4513,std
-0.0015882496,0.003403392,-0.00026179937,-0.0354,-0.12629999,0.049,1.624,-9.6607,0.45099998,std
-0.0032637657,0.0052010813,-0.0007330383,-0.0163,-0.1362,0.049399998,1.6245999,-9.6606,0.4506,std
-0.004834562,0.0047298423,0.00013962634,-0.0169,-0.146,0.049999997,1.6251999,-9.6605,0.45009997,std
-0.0051138145,0.0024958209,0.00027925268,-0.026999999,-0.1362,0.060399998,1.6255,-9.6605,0.44939998,std
-0.003700098,0.005358161,0.00066322513,-0.037,-0.1363,0.040999997,1.6257,-9.6605,0.44919997,std
-0.0029146997,0.00572468,0.0013788101,-0.0177,-0.1461,0.0412,1.6259999,-9.660399,0.449,std
-0.0030717794,0.0060562924,0.0011868239,-0.0175,-0.1265,0.021699999,1.6257,-9.6605,0.44889998,std
-0.005323254,0.0070162234,-0.00019198621,-0.0105,-0.12539999,0.0189,1.6187999,-9.6615,0.4517,std
-0.0058817593,0.0032637657,-0.00075049157,0.0079,-0.1256,0.0297,1.6199,-9.6614,0.45069999,std
-0.008744099,0.00045378561,-0.0015358897,-0.0026,-0.1355,0.0407,1.6207,-9.6613,0.44959998,std
-0.009005899,-0.0004712389,-0.00033161257,-0.0033,-0.1453,0.041899998,1.6214,-9.6612,0.4484,std
-0.008080875,-0.0021642083,-0.00010471976,-0.0036,-0.1453,0.023,1.6216999,-9.6612,0.44759998,std
-0.0068940506,-0.002687807,0.0006981317,-0.0037999998,-0.1061,0.0334,1.6219,-9.6612,0.447,std
-0.003822271,-0.0049741883,0.0002443461,-0.0037999998,-0.1257,-0.0052,1.6219,-9.6612,0.4465,std
-0.0060562924,-0.0063704518,0.0005061455,-0.0139,-0.1355,0.015199999,1.6222,-9.6612,0.4456,std
-0.0054454273,-0.0017976891,0.00015707963,-0.0338,-0.1355,0.0164,1.6223999,-9.6612,0.44439998,std
-0.0070511303,-0.0013089969,-0.00013962634,-0.053799998,-0.1453,0.018099999,1.6228,-9.6612,0.4427,std
-0.009110618,-0.00080285146,-0.0008901179,-0.053799998,-0.1452,0.0297,1.6229,-9.6613,0.4409,std
-0.007574729,0.00038397242,-6.981317e-05,-0.014599999,-0.1452,0.021499999,1.6229,-9.6614,0.4393,std
-0.0043284167,0.00012217305,0.00076794485,0.005,-0.1353,0.0132,1.6228,-9.6615,0.4378,std
-0.0045029493,0.00033161257,0.0014660766,-0.0145,-0.1352,0.0042999997,1.6227,-9.6615,0.4369,std
-0.0063704518,0.00027925268,0.0005061455,-0.0046,-0.12529999,0.0056999996,1.6226,-9.6616,0.4355,std
-0.0065275314,-0.0030194195,-5.235988e-05,0.0052,-0.13509999,-0.0029,1.6226,-9.661699,0.4344,std
-0.005654867,-0.005846853,-0.0010646508,0.0052,-0.13499999,0.018,1.6226,-9.661699,0.433,std
-0.006161012,-0.006126106,-0.0015009831,-0.0242,-0.14479999,0.01,1.6227,-9.661799,0.4312,std
-0.0058293995,-0.002984513,-0.00034906584,-0.0339,-0.14469999,0.011399999,1.6226,-9.6619,0.4298,std
-0.0058119465,-0.007120943,0.00045378561,-0.023799999,-0.15439999,0.0122,1.6222999,-9.662,0.429,std
-0.0061959187,-0.008342674,-3.4906585e-05,-0.0234,-0.1249,0.0131,1.6219,-9.6621,0.4281,std
-0.0077318083,-0.0040317103,-0.0022863813,-0.033,-0.1346,-0.015,1.6215999,-9.6622,0.4269,std
-0.0076096356,-0.0018325957,-0.0025307273,-0.0328,-0.1443,0.0058999998,1.6215,-9.6622,0.42549998,std
-0.005323254,-0.0006457718,-0.0015707964,-0.032899998,-0.1443,0.016999999,1.6215999,-9.6623,0.4242,std
-0.007400196,-0.00012217305,-0.0017976891,-0.052699998,-0.1442,0.0084999995,1.6218,-9.6623,0.4229,std
-0.007278023,-0.00038397242,-0.0025830872,-0.0134,-0.1442,0.009699999,1.6216999,-9.662399,0.42159998,std
-0.0074176495,-0.001256637,-0.0030717794,0.0063,-0.1343,0.0111,1.6215,-9.662499,0.42029998,std
-0.00832522,-0.0024958209,-0.0023736479,-0.0033999998,-0.13419999,0.0026999998,1.6214,-9.662499,0.4188,std
-0.0055326936,0.00036651915,-0.0021816615,-0.013499999,-0.144,0.0142,1.6218,-9.6626,0.4172,std
-0.006038839,0.0017802358,-0.0008901179,-0.0139,-0.144,0.0255,1.6221,-9.6626,0.4157,std
-0.0031241393,0.0025830872,-0.0011519173,-0.0139999995,-0.13419999,-0.0126,1.6222999,-9.6626,0.4147,std
-0.0038397242,0.0032114058,-0.00013962634,-0.0338,-0.124299996,-0.0014,1.6225,-9.6626,0.4132,std
-0.0039095376,0.004956735,-0.0013788101,-0.034199998,-0.13409999,0.0098,1.6229,-9.6626,0.4118,std
-0.0055676005,0.003822271,-0.0034906585,-0.0053,-0.144,0.011399999,1.6234,-9.6626,0.4102,std
-0.0065798913,0.0021816615,-0.0024085543,-0.0252,-0.1538,0.0030999999,1.6236999,-9.6626,0.4087,std
-0.005375614,0.0025481808,-0.0017278759,-0.0254,-0.1538,0.0139,1.6238999,-9.6626,0.4076,std
-0.004712389,0.0035953782,-0.0012915436,-0.0156,-0.1537,0.015,1.6238999,-9.6626,0.40649998,std
-0.0048520155,0.0011693706,-0.0018325957,-0.0157,-0.14389999,0.0253,1.624,-9.6627,0.406,std
-0.0027750735,-0.0013613568,-0.0014486233,-0.0155,-0.1144,-0.0033999998,1.6237999,-9.6627,0.40539998,std
-0.0028274334,-0.0017627826,-0.00012217305,0.0039,-0.124199994,-0.0028,1.6238999,-9.6627,0.4048,std
-0.0016580628,-0.0017802358,-0.00020943952,0.0033,-0.14389999,-0.0018,1.6244999,-9.6627,0.4039,std
-0.003281219,-0.0019547688,0.00045378561,-0.0263,-0.14389999,0.0189,1.6248,-9.6627,0.40269998,std
-0.003996804,-0.004834562,0.00034906584,-0.046099998,-0.13409999,0.0198,1.6249,-9.6627,0.4017,std
-0.0035604716,-0.011030481,0.0010821042,-0.0167,-0.14379999,0.0009999999,1.625,-9.6627,0.401,std
-0.004118977,-0.009616764,0.0025830872,-0.0071,-0.14379999,0.0018999999,1.6251999,-9.6627,0.4001,std
-0.0014835298,-0.008691739,0.0022863813,-0.0022,-0.1528,0.0030999999,1.6202999,-9.6636,0.3989,std
-0.00059341197,-0.0068242373,0.00408407,0.0018999999,-0.113,0.0195,1.6161,-9.6641,0.4021,std
0.00143117,-0.007749262,0.005026548,-0.0026999998,-0.121999994,0.009099999,1.611,-9.665,0.40269998,std
0.0012217305,-0.008255407,0.0030892328,0.0016,-0.1408,0.0009,1.6065999,-9.6658,0.40109998,std
0.00090757123,-0.005846853,0.0012915436,-0.011299999,-0.1314,0.0023999999,1.6097,-9.665299,0.3996,std
-0.0026529005,-0.0047647487,0.00143117,0.0156,-0.1318,0.0137,1.6121999,-9.665,0.3981,std
-0.00286234,-0.0045727626,0.0034208454,0.023699999,-0.1418,0.015199999,1.6139,-9.6647,0.39659998,std
-0.0017104227,-0.0037699111,0.0028972465,0.0126,-0.14199999,0.025799999,1.6151999,-9.664599,0.39569998,std
-0.00040142573,-0.002321288,0.0026179939,0.021699999,-0.14209999,-0.0127,1.6158999,-9.664499,0.39519998,std
-0.0012391837,-0.00408407,0.0029321532,0.0313,-0.13229999,-0.0026999998,1.6162,-9.6644,0.39499998,std
-0.002443461,-0.0073652896,0.004468043,0.0112,-0.1226,0.0072,1.6165999,-9.6644,0.39479998,std
0.00012217305,-0.008674286,0.0056374134,0.0106,-0.1423,-0.0317,1.6172,-9.6643,0.3946,std
0.002024582,-0.011082841,0.00726057,0.00049999997,-0.1423,0.0082,1.6175,-9.6643,0.3938,std
0.002391101,-0.010698868,0.0075572757,-0.009099999,-0.1422,0.009,1.6173999,-9.6643,0.39299998,std
0.0006981317,-0.0076096356,0.0050440016,-0.009,-0.13239999,0.019299999,1.6172,-9.6644,0.39249998,std
0.000715585,-0.008360127,0.005253441,-0.0030999999,-0.1314,0.0008,1.6114,-9.6654,0.39139998,std
0.0006981317,-0.008953539,0.005427974,-0.0234,-0.1413,0.0109,1.6121,-9.665299,0.3911,std
-8.726646e-05,-0.003874631,0.0052010813,-0.033299997,-0.1413,0.0213,1.6121999,-9.665299,0.39049998,std
0.0006981317,-0.00082030473,0.0034732053,-0.0037,-0.151,0.021499999,1.612,-9.665299,0.39029998,std
-0.00027925268,-0.0014660766,0.004363323,0.0067,-0.1215,0.0116,1.6113,-9.6654,0.3904,std
0.0011693706,6.981317e-05,0.0058817593,0.0174,-0.1312,-0.0081,1.6104,-9.6656,0.3906,std
0.0020071287,0.0024609142,0.007941248,0.0081,-0.1311,-0.0179,1.6099,-9.6657,0.39049998,std
0.0016929694,0.005410521,0.009093165,0.0185,-0.1408,-0.0079,1.6093,-9.6658,0.3904,std
0.0028274334,0.004555309,0.010419616,0.019299999,-0.1406,-0.0078,1.6085,-9.6659,0.3902,std
0.001012291,0.0031764992,0.011815879,0.02,-0.1405,0.0021,1.6078,-9.665999,0.3901,std
0.0013962634,0.00066322513,0.014102261,0.012999999,-0.14989999,0.010799999,1.6049999,-9.6665,0.39119998,std
0.0027576203,0.00041887903,0.016790068,0.0133,-0.14,0.0209,1.6047,-9.6665,0.3909,std
0.0021991148,0.0004363323,0.020018926,0.023799999,-0.1399,0.0208,1.604,-9.6666,0.391,std
0.0019373155,-0.00012217305,0.020594886,0.024899999,-0.1398,0.0106,1.6028999,-9.6668,0.39139998,std
0.001256637,-0.0045727626,0.020542525,0.0264,-0.13949999,0.010199999,1.6014,-9.667,0.3918,std
-3.4906585e-05,-0.006126106,0.021589722,0.0184,-0.1393,-0.0002,1.5996,-9.6673,0.3924,std
-0.0011868239,-0.011187561,0.020909045,0.030299999,-0.1487,0.0093,1.5975,-9.6676,0.3927,std
-0.0018675023,-0.012147492,0.02094395,0.032899998,-0.1287,0.0188,1.5949,-9.668,0.3929,std
-0.0029321532,-0.0146084055,0.023090705,0.0164,-0.1282,0.028099999,1.5918,-9.6685,0.3935,std
-0.0030194195,-0.018884463,0.025673794,0.0299,-0.1276,0.0081,1.5881,-9.6691,0.39389998,std
-0.0034557518,-0.019111356,0.029234264,0.0436,-0.117199995,0.0273,1.5841999,-9.6698,0.39429998,std
-0.0017976891,-0.022235494,0.032375857,0.0475,-0.1068,0.0075999997,1.5804,-9.6704,0.3944,std
0.00066322513,-0.029443704,0.03213151,0.0515,-0.1061,0.0176,1.5762999,-9.671,0.3942,std
0.0033161256,-0.035046212,0.032515485,0.025899999,-0.1152,0.037699997,1.5725,-9.6717,0.3936,std
0.005375614,-0.035709437,0.03213151,0.02,-0.13419999,0.0286,1.5685999,-9.672299,0.3929,std
0.0055676005,-0.031520646,0.034278266,0.0145,-0.1335,0.0198,1.5643,-9.6730995,0.3919,std
0.0021293017,-0.025953045,0.033772122,0.0095,-0.1326,0.021,1.5595,-9.6739,0.3908,std
-0.003159046,-0.016353736,0.03111922,0.0149,-0.1317,-0.0071,1.554,-9.6748,0.38959998,std
-0.010035643,-0.01574287,0.028099801,0.0112,-0.1209,-0.015899999,1.548,-9.675799,0.3885,std
-0.010681415,-0.020891592,0.028920105,0.017199999,-0.12969999,0.0044,1.5419999,-9.6768,0.38779998,std
-0.008185594,-0.019495327,0.03324852,0.0134,-0.1287,0.034199998,1.536,-9.6778,0.3874,std
-0.0036128315,-0.013281955,0.03769911,0.029099999,-0.1572,0.0244,1.53,-9.6788,0.38729998,std
-0.0019547688,-0.0041538836,0.04033456,0.064899996,-0.1268,0.0145,1.5237,-9.6797,0.3875,std
-0.001850049,-0.0034382986,0.04256858,0.081,-0.076799996,0.005,1.5173999,-9.680699,0.38709998,std
-0.0045029493,-0.009738937,0.03991568,0.0672,-0.0954,-0.033,1.5116,-9.6817,0.38599998,std
-0.006091199,-0.015323991,0.039077923,0.042999998,-0.15339999,-0.0011,1.5063,-9.6826,0.3836,std
-0.009843657,-0.012234758,0.037140608,-0.00049999997,-0.16219999,0.0309,1.5008999,-9.683599,0.3809,std
-0.014800392,-0.009250245,0.03593633,-0.023699999,-0.1514,0.0624,1.4947,-9.6846,0.3788,std
-0.01792453,-0.013020156,0.039409533,0.0030999999,-0.1502,0.0537,1.4875,-9.6858,0.3777,std
-0.01616175,-0.017558012,0.041678462,0.030399999,-0.1196,0.0149,1.4797,-9.686999,0.3773,std
-0.017802358,-0.015620696,0.04244641,0.038599998,-0.1085,-0.0336,1.4714999,-9.6882,0.3768,std
-0.018954275,-0.01277581,0.043406337,0.0267,-0.1073,-0.003,1.4638,-9.6894,0.3757,std
-0.016685348,-0.0137008345,0.046286132,0.0243,-0.0963,0.0083,1.4563999,-9.690599,0.3741,std
-0.015132004,-0.013718287,0.04909611,0.0026999998,-0.095,-0.0087,1.4485999,-9.691899,0.3716,std
-0.014102261,-0.013281955,0.051591933,-0.020399999,-0.123399995,0.0037999998,1.4424,-9.6929,0.36879998,std
-0.013631022,-0.011623893,0.052342422,-0.022599999,-0.1222,0.037,1.4347999,-9.6942,0.3649,std
-0.013264502,-0.016091935,0.05253441,-0.0047999998,-0.110999994,0.040599998,1.4268,-9.695499,0.3613,std
-0.017802358,-0.019146262,0.051801372,0.022799999,-0.109699994,0.0347,1.4187,-9.696799,0.3575,std
-0.02591814,-0.020525072,0.052412238,0.0213,-0.1476,0.0289,1.4103,-9.6982,0.35349998,std
-0.029967302,-0.02994985,0.051504668,0.0106,-0.1461,0.051999997,1.4014,-9.6996,0.34989998,std
-0.03197443,-0.029967302,0.05120796,0.0103,-0.1251,0.0651,1.392,-9.701099,0.34669998,std
-0.03211406,-0.02432989,0.05003859,-0.009099999,-0.113699995,0.0289,1.382,-9.7026,0.3437,std
-0.03520329,-0.027104963,0.05169665,0.0009,-0.1024,-0.0072999997,1.3719,-9.7042,0.3408,std
-0.035971235,-0.033789575,0.050544735,0.011,-0.0714,-0.0044,1.3618,-9.7057,0.3378,std
-0.036913715,-0.037768926,0.050282937,-0.0083,-0.0993,-0.0396,1.3518,-9.7072,0.3338,std
-0.039287362,-0.038362335,0.051173054,0.011399999,-0.107499994,-0.0047,1.3418,-9.708799,0.3283,std
-0.040805798,-0.041573744,0.051818825,0.0311,-0.106,0.050899997,1.3319,-9.7104,0.3217,std
-0.040927973,-0.047944196,0.056618482,0.0016,-0.0946,0.0382,1.3222,-9.712,0.31469998,std
-0.03668682,-0.050597094,0.05979498,-0.037699997,-0.1029,0.0254,1.3126,-9.7135,0.30789998,std
-0.035430185,-0.05274385,0.06218608,-0.0376,-0.1209,0.0231,1.3026,-9.715,0.3004,std
-0.03488913,-0.053895768,0.06365216,-0.0279,-0.0998,0.031,1.2929,-9.716599,0.2926,std
-0.032882,-0.05893977,0.061295964,-0.0379,-0.098299995,0.0488,1.2832999,-9.7181,0.2845,std
-0.03656465,-0.06511823,0.061714843,-0.047599997,-0.13589999,0.0378,1.2735,-9.7196,0.2759,std
-0.032463122,-0.06831218,0.063582346,-0.067099996,-0.17359999,0.046699997,1.2635,-9.7212,0.267,std
-0.035011306,-0.070249505,0.06447246,-0.056199998,-0.1524,0.036199998,1.2526,-9.722799,0.2579,std
-0.032882,-0.06632251,0.06977826,-0.0251,-0.1409,0.044499997,1.2411,-9.7245,0.2496,std
-0.031573005,-0.058398716,0.073705256,-0.0229,-0.1195,0.0232,1.2292,-9.726299,0.24149999,std
-0.029670598,-0.047420595,0.075049154,-0.020499999,-0.0982,0.0018,1.2169,-9.728,0.23349999,std
-0.026127579,-0.034313172,0.07501425,-0.0479,-0.0867,-0.0198,1.2050999,-9.7296,0.22569999,std
-0.023335053,-0.014852752,0.07285004,-0.0557,-0.13409999,-0.0111,1.1933,-9.731299,0.217,std
-0.021293016,0.0028274334,0.07030186,-0.023899999,-0.103,-0.012999999,1.1811,-9.733,0.2091,std
-0.024085544,0.0006283185,0.06948156,-0.0115,-0.1602,-0.0241,1.1687,-9.7346,0.2007,std
-0.03111922,-0.0075223693,0.06496116,0.0607,-0.1486,-0.074999996,1.1553,-9.7364,0.1927,std
-0.032201324,-0.006510078,0.063599795,0.1336,-0.1566,-0.0773,1.1410999,-9.7382,0.18509999,std
-0.028536133,-0.0067195175,0.06560693,0.197,-0.1352,-0.0605,1.1266999,-9.74,0.17819999,std
-0.028710665,-0.00013962634,0.060039327,0.1918,-0.1236,-0.0252,1.1123999,-9.741799,0.1723,std
-0.03244567,0.0038571777,0.055309486,0.1273,-0.0827,-0.049599998,1.0984,-9.7434,0.1673,std
-0.02932153,0.011414453,0.059288833,0.0722,-0.081099994,-0.065,1.0849,-9.745,0.16309999,std
-0.03338815,0.013369222,0.057526052,0.0084999995,-0.0892,-0.010799999,1.0701,-9.746799,0.15789999,std
-0.035901424,0.011868238,0.057229348,-0.0095,-0.1467,0.033999998,1.0588,-9.748099,0.1522,std
-0.03333579,0.0028099802,0.059079394,0.012499999,-0.16489999,0.0307,1.0465,-9.749499,0.1457,std
-0.031293754,0.009354965,0.06616543,0.0154,-0.094799995,0.0462,1.0338,-9.750899,0.14,std
-0.026441738,-5.235988e-05,0.062465332,-0.0415,-0.1131,0.032199997,1.0222,-9.752299,0.1344,std
-0.027366763,3.4906585e-05,0.062378068,-0.0699,-0.1217,-0.020299999,1.0113,-9.7535,0.1282,std
-0.031311207,-0.0068416907,0.05900958,-0.0975,-0.1205,-0.0246,0.99969995,-9.7547,0.1227,std
-0.032079153,-0.019355701,0.055274576,-0.076299995,-0.129,-0.0477,0.9884,-9.756,0.116399996,std
-0.03317871,-0.025377087,0.057072267,-0.114099994,-0.14739999,-0.0115,0.977,-9.757199,0.1096,std
-0.03117158,-0.027070057,0.0598997,-0.121999994,-0.1266,-0.005,0.96529996,-9.7584,0.103099994,std
-0.027680922,-0.030508354,0.060528018,-0.1383,-0.1546,-0.087299995,0.9522,-9.7598,0.0971,std
-0.024644049,-0.037803832,0.058189277,-0.15519999,-0.124,-0.0722,0.93979996,-9.761,0.0918,std
-0.023474678,-0.03508112,0.051923543,-0.16239999,-0.0933,-0.086399995,0.9273,-9.7623,0.086399995,std
-0.023876105,-0.030351276,0.04977679,-0.17019999,-0.1118,-0.08,0.9155,-9.7634,0.08,std
-0.022828907,-0.02942625,0.043388885,-0.2277,-0.15969999,-0.0733,0.9044,-9.7645,0.0733,std
-0.017313667,-0.032288592,0.03876376,-0.18679999,-0.16839999,-0.066199996,0.8929,-9.7656,0.066199996,std
-0.013020156,-0.042376593,0.038083084,-0.1846,-0.12799999,-0.059499998,0.88079995,-9.7668,0.059499998,std
-0.016702801,-0.051557027,0.038309976,-0.13319999,-0.14649999,-0.0436,0.86869997,-9.7678995,0.0534,std
-0.023649212,-0.056793015,0.040055305,-0.1312,-0.1357,-0.047799997,0.8569,-9.769,0.047799997,std
-0.026424285,-0.061138883,0.039409533,-0.120799996,-0.16409999,-0.071899995,0.8465,-9.769899,0.0425,std
-0.020437805,-0.056758106,0.03429572,-0.1793,-0.1338,-0.0372,0.8364,-9.7708,0.0372,std
-0.01441642,-0.057927478,0.02989749,-0.2489,-0.1723,-0.0517,0.8275,-9.7716,0.0321,std
-0.011397,-0.058677968,0.02628466,-0.2703,-0.1814,-0.057499997,0.81939995,-9.7723,0.027999999,std
-0.014887659,-0.061138883,0.0257087,-0.2525,-0.1415,-0.073699996,0.81149995,-9.7729,0.024699999,std
-0.017418386,-0.054995324,0.027523842,-0.1568,-0.1311,-0.0402,0.80399996,-9.7736,0.0206,std
-0.01616175,-0.05333726,0.027977629,-0.0902,-0.1206,-0.015,0.7962,-9.7741995,0.015,std
-0.009372418,-0.06373943,0.02872812,-0.0334,-0.1396,0.0008,0.78849995,-9.774799,0.0089,std
-0.0035255651,-0.08267625,0.03223623,-0.0365,-0.1096,-0.0138,0.7818,-9.7754,0.0039999997,std
-0.0014137167,-0.10971139,0.043388885,-0.060099997,-0.0994,-0.0493,0.77599996,-9.7758,0.00029999999,std
0.0019896755,-0.14491469,0.05831145,-0.0844,-0.1284,-0.055999998,0.77089995,-9.776299,-0.0028,std
0.010960667,-0.18868755,0.07510152,-0.099,-0.12799999,-0.0030999999,0.7658,-9.7766,-0.0066,std
0.008133234,-0.24284512,0.091909036,-0.113199994,-0.1374,0.0009999999,0.7604,-9.7771,-0.0109,std
0.0027750735,-0.24403194,0.08299041,-0.2156,-0.1369,-0.0047,0.7549,-9.7775,-0.0148,std
-0.014102261,-0.16496852,0.037227873,-0.3178,-0.1954,-0.050899997,0.7493,-9.7779,-0.0176,std
-0.023509584,-0.07956956,-0.008464847,-0.3311,-0.1655,-0.0784,0.743,-9.778399,-0.0195,std
-0.022933627,-0.07663741,-0.035133477,-0.2923,-0.1451,-0.096,0.73359996,-9.779099,-0.021599999,std
-0.01972222,-0.067142814,-0.026965337,-0.1839,-0.1542,-0.16309999,0.7233,-9.7799,-0.0232,std
-0.011623893,-0.03728023,-0.002391101,-0.0122,-0.1629,-0.093899995,0.70849997,-9.7809,-0.023699999,std
-0.0017627826,-0.007504916,0.017819813,0.34899998,-0.1714,-0.1215,0.6904,-9.7822,-0.0255,std
0.0034208454,0.017296214,0.021432644,0.69879997,0.0061,-0.0795,0.67399997,-9.7834,-0.028299998,std
0.0019547688,0.02963569,0.015515977,0.68659997,0.1831,-0.074499995,0.6666,-9.783899,-0.0332,std
-0.005253441,0.018413223,0.0040317103,0.3319,0.0359,0.0389,0.66819996,-9.7837,-0.0389,std
-0.010855948,0.0021118484,0.0015707964,-0.018,-0.22929999,0.0738,0.675,-9.783199,-0.0444,std
-0.012950343,0.0068940506,0.009180432,-0.0821,-0.2983,0.059,0.6803,-9.7829,-0.0492,std
-0.010262536,0.023404865,0.012426744,-0.053099997,-0.2591,0.061699998,0.6807,-9.7828,-0.0519,std
-0.00832522,0.032847095,0.009337512,-0.0492,-0.1608,0.12109999,0.67689997,-9.7831,-0.0524,std
-0.0050090947,0.030997047,0.0043982295,-0.0455,-0.0821,0.031999998,0.6731,-9.783299,-0.051599998,std
-0.007749262,0.03111922,0.006091199,-0.0523,-0.091699995,-0.106,0.6701,-9.7835,-0.0508,std
-0.010402163,0.029827677,0.00996583,-0.13,-0.1112,-0.114999995,0.66929996,-9.7836,-0.051599998,std
-0.0141546205,0.026057765,0.016685348,-0.1002,-0.1602,0.0145,0.66899997,-9.7836,-0.0537,std
-0.019093903,0.03398156,0.018727383,-0.049399998,-0.1503,0.0757,0.66719997,-9.7837,-0.0561,std
-0.023265239,0.03748967,0.014049901,-0.0568,-0.1011,0.1068,0.6648,-9.783899,-0.0578,std
-0.019896753,0.040055305,0.006684611,-0.1237,-0.1501,0.0884,0.663,-9.783999,-0.059,std
-0.018273598,0.045465827,0.007033677,-0.1915,-0.1304,0.0596,0.6622,-9.783999,-0.0596,std
-0.017645279,0.045605455,0.007871435,-0.2198,-0.14989999,0.0607,0.6611,-9.7841,-0.0607,std
-0.015795229,0.04075344,0.008970993,-0.21779999,-0.15959999,0.062299997,0.6591,-9.7842,-0.062299997,std
-0.014887659,0.03785619,0.009616764,-0.106699996,-0.1104,0.0647,0.6559,-9.7844,-0.0647,std
-0.012095132,0.039008107,0.010995574,-0.024699999,-0.1004,0.067999996,0.6523,-9.784599,-0.067999996,std
-0.007644542,0.035290558,0.012793263,-0.070999995,-0.119799994,0.062299997,0.64959997,-9.7848,-0.0721,std
-0.008779006,0.03944444,0.010995574,-0.0894,-0.1296,0.0264,0.6483,-9.7849,-0.075399995,std
-0.010873402,0.04223697,0.0075572757,-0.088,-0.1197,0.0098,0.64699996,-9.7849,-0.0784,std
-0.0076794485,0.036966074,0.004939282,-0.076799996,-0.14899999,-0.0069,0.6455,-9.785,-0.0813,std
-0.0062308256,0.030647982,0.006021386,-0.104499996,-0.15879999,-0.0042999997,0.6439,-9.7851,-0.0839,std
-0.007574729,0.029967302,0.004712389,-0.102699995,-0.1783,-0.0313,0.64199996,-9.7852,-0.0863,std
-0.009302605,0.025324726,0.00085521134,-0.12019999,-0.1585,-0.049,0.63989997,-9.785299,-0.088199995,std
-0.013351769,0.016667895,-0.0028972465,-0.0687,-0.1192,-0.048,0.6375,-9.785399,-0.0892,std
-0.01654572,0.010594148,-0.0045029493,-0.066599995,-0.0896,-0.0468,0.6354,-9.7856,-0.090399995,std
-0.015987216,0.0015707964,-0.0037175512,-0.1241,-0.1484,-0.045199998,0.634,-9.7856,-0.092,std
-0.0141546205,0.0029496064,-0.0029670596,-0.133,-0.1287,-0.044099998,0.6331,-9.7857,-0.0931,std
-0.011519173,0.006510078,-0.0043807765,-0.1024,-0.1091,-0.0433,0.63199997,-9.7858,-0.093899995,std
-0.011641346,0.004118977,-0.0034208454,-0.0819,-0.099199995,-0.022499999,0.631,-9.7858,-0.0951,std
-0.012723451,0.00083775807,-0.006021386,-0.121,-0.0894,-0.011299999,0.63089997,-9.7858,-0.096499994,std
-0.011676253,-0.0013089969,-0.005654867,-0.121599995,-0.1287,0.0008,0.6315,-9.7857,-0.0989,std
-0.010838495,-0.00017453292,-0.004537856,-0.122499995,-0.13859999,0.0137,0.6324,-9.7857,-0.102,std
-0.011222467,0.00033161257,-0.006492625,-0.0938,-0.1485,0.0266,0.6331,-9.7856,-0.1051,std
-0.011030481,-0.00066322513,-0.0050440016,-0.0747,-0.1191,0.0392,0.6337,-9.7855,-0.1078,std
-0.010611602,-0.0026529005,-0.00413643,-0.0854,-0.1094,0.0316,0.6346,-9.785399,-0.11,std
-0.013997541,-0.0045727626,-0.0048171086,-0.0861,-0.1193,-0.0053,0.6353,-9.785399,-0.1122,std
-0.015132004,-0.005305801,-0.0054628807,-0.0971,-0.1586,-0.0029,0.6364,-9.785299,-0.1147,std
-0.012793263,-0.0077318083,-0.00726057,-0.0883,-0.1293,0.0092,0.6375,-9.7852,-0.117,std
-0.0108908545,-0.012671091,-0.0074351025,-0.0892,-0.1294,0.011299999,0.63839996,-9.7851,-0.1192,std
-0.0113795465,-0.013055063,-0.0069464105,-0.11009999,-0.1393,-0.006,0.6397,-9.785,-0.1214,std
-0.013491395,-0.016214108,-0.006562438,-0.0915,-0.13939999,-0.0235,0.64059997,-9.7849,-0.1235,std
-0.012688544,-0.018064158,-0.005986479,-0.0726,-0.1296,-0.021399999,0.6414,-9.7848,-0.1256,std
-0.012409291,-0.017941985,-0.0033335788,-0.0539,-0.119899996,0.010799999,0.6423,-9.784699,-0.1284,std
-0.010367256,-0.014957472,-0.0027925267,-0.0648,-0.1495,0.0138,0.6434,-9.784599,-0.13149999,std
-0.006981317,-0.0056374134,-0.003944444,-0.076,-0.13,-0.0030999999,0.6448,-9.7845,-0.13409999,std
-0.008918633,-0.002565634,-0.007923795,-0.0676,-0.1301,-0.0106,0.6462,-9.7843,-0.1364,std
-0.010070549,-0.004066617,-0.010000736,-0.0493,-0.1204,-0.0082,0.6475,-9.7842,-0.1388,std
-0.015219271,-0.005846853,-0.01144936,-0.0211,-0.1401,-0.015199999,0.6487,-9.7841,-0.1416,std
-0.012461651,-0.0034557518,-0.0074874624,-0.012399999,-0.14029999,-0.0026,0.6498,-9.783999,-0.1444,std
-0.012322024,-0.00029670598,-0.0049043754,0.0066,-0.14029999,0.0195,0.6504,-9.783899,-0.147,std
-0.011292281,-0.0010821042,-0.005427974,0.0257,-0.120799996,0.012,0.6509,-9.7838,-0.1493,std
-0.009075712,-0.0034906585,-0.0064228117,0.015199999,-0.081599995,-0.0453,0.6516,-9.7838,-0.1507,std
-0.008552114,-0.0022340214,-0.0061784657,-0.0058999998,-0.071899995,-0.0436,0.65309995,-9.7836,-0.1525,std
-0.009616764,-0.0060562924,-0.007452556,-0.037299998,-0.131,-0.0414,0.6551,-9.7835,-0.1546,std
-0.010175269,-0.006684611,-0.0066671576,-0.0492,-0.16059999,-0.009099999,0.6572,-9.783299,-0.1575,std
-0.011623893,-0.001134464,-0.0070162234,-0.060399998,-0.1313,0.022699999,0.6586,-9.7831,-0.16,std
-0.011711159,0.0015009831,-0.008447394,-0.0515,-0.151,0.015299999,0.65959996,-9.783,-0.16239999,std
-0.011588986,0.0051138145,-0.009791297,-0.0526,-0.1413,0.0175,0.6606,-9.7829,-0.1646,std
-0.013055063,0.0068591437,-0.0075572757,-0.034199998,-0.1218,-0.0394,0.66179997,-9.7828,-0.1665,std
-0.010594148,0.013962634,-0.004363323,-0.0157,-0.1219,-0.057299998,0.663,-9.7827,-0.1682,std
-0.009738937,0.01574287,-0.006161012,-0.0466,-0.1318,-0.016099999,0.6644,-9.782599,-0.17009999,std
-0.0113795465,0.0104370685,-0.00710349,-0.0184,-0.132,-0.053299997,0.6656,-9.782499,-0.1722,std
-0.011309734,0.006440265,-0.0061959187,-0.0001,-0.1125,-0.0412,0.667,-9.7823,-0.17449999,std
-0.010943214,0.0064751715,-0.005270894,-0.021499999,-0.13229999,-0.0289,0.6688,-9.7822,-0.177,std
-0.011571533,0.0066497047,-0.004939282,-0.0232,-0.13239999,0.0023999999,0.6705,-9.782,-0.17899999,std
-0.009826204,0.00413643,-0.006091199,-0.0345,-0.1227,0.0049,0.6719,-9.781899,-0.1814,std
-0.008744099,0.0038571777,-0.002268928,-0.0256,-0.113,-0.0127,0.6728,-9.781799,-0.18329999,std
-0.008028515,0.009634217,-0.0021991148,-0.0464,-0.113199994,-0.0307,0.67399997,-9.7817,-0.185,std
-0.009250245,0.01303761,-0.0022165682,-0.047799997,-0.1231,-0.0188,0.67539996,-9.7815,-0.1871,std
-0.008360127,0.01150172,-0.0050090947,-0.0686,-0.1134,-0.0166,0.6766,-9.7814,-0.1892,std
-0.00827286,0.010943214,-0.005358161,-0.030399999,-0.12329999,-0.0047999998,0.6777,-9.7813,-0.19119999,std
-0.0074351025,0.012339477,-0.0063704518,-0.0117999995,-0.1529,-0.0222,0.67859995,-9.781199,-0.1934,std
-0.008517207,0.0113446405,-0.005375614,-0.052199997,-0.1236,-0.0008,0.6798,-9.781099,-0.1953,std
-0.008813913,0.0050090947,-0.0038571777,-0.0722,-0.1236,0.030199999,0.6802,-9.781,-0.1969,std
-0.008150687,0.0014137167,-0.0027576203,-0.023599999,-0.1237,0.0022,0.6807,-9.7809,-0.19829999,std
-0.0067195175,0.002268928,-0.003752458,-0.0437,-0.1336,-0.0058999998,0.6811,-9.7809,-0.19999999,std
-0.006038839,0.0021991148,-0.0062308256,-0.0643,-0.1533,-0.024,0.6821,-9.7808,-0.2014,std
-0.0067718774,0.0010471975,-0.0077841682,-0.0849,-0.1239,-0.0323,0.6831,-9.7807,-0.20289999,std
-0.005794493,0.00020943952,-0.0060039326,-0.066599995,-0.1241,-0.050699998,0.68439996,-9.7806,-0.2042,std
-0.0051661744,-0.00033161257,-0.0027227136,-0.0382,-0.134,-0.0394,0.68549997,-9.780399,-0.2057,std
-0.0050440016,-0.00055850536,-0.002321288,-0.019399999,-0.13409999,-0.0083,0.68619996,-9.780399,-0.20729999,std
-0.005986479,0.00010471976,-0.003874631,-0.0199,-0.11449999,-0.036199998,0.6867,-9.7803,-0.20889999,std
-0.00418879,0.00076794485,-0.002687807,-0.0009999999,-0.13419999,-0.0349,0.6874,-9.7802,-0.2102,std
-0.0012915436,0.003228859,-0.0038397242,-0.0414,-0.1441,-0.0435,0.6886,-9.7801,-0.2113,std
-0.0020769418,0.0036651914,-0.003700098,-0.072299995,-0.1443,-0.0324,0.69009995,-9.78,-0.2126,std
-0.0009948377,0.0031939526,-0.0023561944,-0.044,-0.1149,-0.0411,0.6913,-9.7799,-0.2138,std
-0.00040142573,0.004310963,-0.00075049157,-0.0150999995,-0.1346,-0.0499,0.6918,-9.779799,-0.2148,std
-0.0010821042,0.0022863813,-0.0011519173,0.0039999997,-0.1151,-0.0391,0.6922,-9.779799,-0.21579999,std
-0.000715585,0.00020943952,-0.0018849556,0.0032,-0.1249,0.0011999999,0.6929,-9.779699,-0.21689999,std
0.002094395,-0.0018151425,-0.0010646508,-0.036399998,-0.1348,-0.0077,0.69339997,-9.7796,-0.21769999,std
0.003979351,-0.000715585,3.4906585e-05,-0.0371,-0.14469999,-0.0173,0.6942,-9.7796,-0.2179,std
0.004782202,-0.00022689281,0.0005410521,-0.0378,-0.14469999,-0.036599997,0.6949,-9.7795,-0.2183,std
0.0066147977,-0.0019373155,-0.00076794485,-0.0285,-0.1349,-0.0169,0.6953,-9.7795,-0.2184,std
0.0059515727,-0.0028972465,-0.00041887903,-0.0286,-0.1153,-0.0365,0.69549996,-9.7795,-0.2184,std
0.004712389,-0.00083775807,-0.00031415926,-0.038599998,-0.14479999,-0.0363,0.6957,-9.7794,-0.21859999,std
0.00710349,-0.00036651915,-0.0014137167,-0.029199999,-0.14479999,-0.0361,0.696,-9.7794,-0.2188,std
0.007906342,-0.0021816615,0.00017453292,-0.0195,-0.1252,-0.036399998,0.69619995,-9.7794,-0.2184,std
0.008098328,-0.0006283185,0.00076794485,0.0,-0.115399994,-0.0372,0.6961,-9.7794,-0.21769999,std
0.0062482785,-0.003979351,-1.7453292e-05,-0.0095,-0.13499999,-0.0481,0.696,-9.7795,-0.2166,std
0.008621926,-0.005305801,0.0013613568,-0.0095999995,-0.1349,-0.068799995,0.6961,-9.7795,-0.2155,std
0.0108908545,-0.0039095376,0.0027925267,0.0098,-0.1251,-0.0503,0.69619995,-9.7795,-0.21429999,std
0.010716322,-0.0068242373,0.004363323,-0.009699999,-0.1251,-0.0317,0.69619995,-9.7795,-0.21339999,std
0.010384709,-0.005654867,0.002635447,-0.01,-0.1349,-0.0429,0.6964,-9.7795,-0.212,std
0.006021386,-0.004694936,0.00015707963,-0.0295,-0.105399996,-0.024799999,0.6964,-9.7796,-0.2105,std
0.0050090947,-0.0008901179,-0.001256637,-0.0391,-0.125,-0.0264,0.69619995,-9.7796,-0.20889999,std
0.0027227136,0.0008901179,-0.00022689281,-0.048899997,-0.125,-0.0079,0.6961,-9.779699,-0.2077,std
0.0019896755,0.0004886922,0.002984513,-0.038799997,-0.1347,0.0198,0.6958,-9.779699,-0.2061,std
0.00286234,-0.00061086525,0.0037175512,-0.0382,-0.1346,-0.0116,0.69519997,-9.779799,-0.204,std
0.0035953782,-0.0008726646,0.0011519173,-0.0275,-0.124699995,-0.0235,0.6943,-9.7799,-0.20199999,std
0.003403392,-0.00057595863,0.0008901179,0.0122,-0.12459999,-0.0254,0.69369996,-9.78,-0.19999999,std
0.0011693706,-0.0067020645,-0.0002443461,-0.0268,-0.105,-0.0069,0.69369996,-9.78,-0.1989,std
0.003281219,-0.011536626,0.0029146997,-0.0859,-0.1148,0.0116,0.6939,-9.78,-0.1979,std
0.0043807765,-0.010349803,0.0037175512,-0.076,-0.1344,0.0208,0.6938,-9.78,-0.19739999,std
0.0031764992,-0.011588986,0.0035953782,-0.0655,-0.1343,0.04,0.6932,-9.7801,-0.1969,std
0.0048520155,-0.01308997,0.004590216,-0.0648,-0.1147,0.0493,0.6924,-9.7802,-0.1964,std
0.004939282,-0.011641346,0.004066617,-0.0547,-0.1244,0.0289,0.6921,-9.7802,-0.19559999,std
0.0004363323,-0.010227629,0.0004363323,-0.074,-0.13419999,0.038,0.6918,-9.7802,-0.19489999,std
-0.0008726646,-0.008063421,-0.0010471975,-0.083799995,-0.1244,-0.0011999999,0.6918,-9.7802,-0.19479999,std
-0.0012740904,-0.0074700094,-0.00010471976,-0.0734,-0.11449999,0.007999999,0.69119996,-9.7803,-0.1943,std
-0.004049164,-0.009075712,0.0023387412,-0.0431,-0.11449999,0.026899999,0.6904,-9.780399,-0.1936,std
-0.0038397242,-0.006161012,0.0020769418,-0.052199997,-0.1046,0.0264,0.6896,-9.780399,-0.19309999,std
-0.0046251225,-0.0063529983,-0.0009250245,-0.0414,-0.1143,-0.013499999,0.6886,-9.780499,-0.19229999,std
-0.003159046,-0.0085695665,-0.00095993106,-0.0111,-0.104399994,-0.0241,0.6877,-9.7806,-0.1915,std
-0.002268928,-0.011431906,-0.0012042772,-0.030499998,-0.114199996,-0.0143,0.68759996,-9.7806,-0.1916,std
-0.003752458,-0.010873402,0.00013962634,-0.0699,-0.124,-0.0139999995,0.6877,-9.7806,-0.1919,std
-0.0024085543,-0.00726057,-0.00029670598,-0.06,-0.1437,-0.0037999998,0.6877,-9.7806,-0.19219999,std
-0.00418879,-0.0066147977,-0.0012217305,-0.0301,-0.1338,-0.0029,0.6871,-9.7806,-0.19309999,std
-0.0036477381,-0.0060039326,5.235988e-05,-0.0198,-0.0848,-0.021699999,0.6867,-9.7806,-0.19399999,std
-0.0027227136,-0.004939282,-0.00022689281,-0.0493,-0.0946,-0.0011,0.6868,-9.7806,-0.19489999,std
-0.0027750735,-0.0038920841,-0.000715585,-0.078899994,-0.1339,-0.010199999,0.68689996,-9.7806,-0.19569999,std
-0.00286234,-0.0027576203,-0.00052359875,-0.0398,-0.1339,-0.019399999,0.687,-9.780499,-0.1963,std
-0.0021293017,-0.0015184365,-0.0002443461,-0.0299,-0.1241,-0.028299998,0.68689996,-9.780499,-0.1972,std
-0.0032463125,-1.7453292e-05,-0.00017453292,-0.049399998,-0.1339,-0.0179,0.68689996,-9.780499,-0.1977,std
-0.0051138145,0.0012391837,5.235988e-05,-0.049599998,-0.1339,-0.0267,0.6871,-9.780499,-0.1987,std
-0.003228859,-0.0016057029,0.0010821042,-0.0299,-0.134,-0.025999999,0.687,-9.780499,-0.1994,std
-0.003944444,-0.0011693706,0.00083775807,-0.0299,-0.134,-0.0156,0.687,-9.780499,-0.19999999,std
-0.0020594886,-0.003403392,0.0023561944,-0.03,-0.124199994,-0.024799999,0.687,-9.780399,-0.2006,std
-0.0021991148,-0.007225663,0.0004886922,-0.03,-0.124199994,-0.033999998,0.6871,-9.780399,-0.2012,std
-0.0024085543,-0.008936086,0.00022689281,-0.03,-0.124199994,-0.0433,0.6871,-9.780399,-0.2017,std
-0.0023038345,-0.006265732,0.00015707963,-0.049599998,-0.134,-0.0133,0.687,-9.780399,-0.2024,std
-0.00055850536,-0.0024783674,0.0,-0.0692,-0.124199994,0.0072,0.687,-9.780399,-0.2034,std
-0.0021118484,0.001134464,-0.0012217305,-0.068799995,-0.134,-0.021399999,0.6867,-9.780399,-0.204,std
-0.0023561944,0.005899213,-0.0014660766,-0.058799997,-0.134,-0.0206,0.6864,-9.780399,-0.2048,std
-0.0033510323,0.01160644,-0.00076794485,-0.0387,-0.124199994,-0.0398,0.6859,-9.780399,-0.20529999,std
-0.00038397242,0.015236724,0.00059341197,-0.0189,-0.134,-0.0491,0.6857,-9.780399,-0.2058,std
0.0006457718,0.014451326,0.0016231562,-0.0089,-0.124199994,-0.0387,0.6856,-9.780399,-0.20639999,std
0.00055850536,0.012548917,0.0013613568,-0.0088,-0.1144,-0.057699997,0.68549997,-9.780399,-0.2069,std
8.726646e-05,0.010053096,0.00029670598,-0.0088,-0.1144,-0.0379,0.68549997,-9.780399,-0.20709999,std
0.00090757123,0.011519173,-1.7453292e-05,-0.0188,-0.134,-0.037499998,0.6857,-9.780399,-0.2076,std
0.00012217305,0.008604473,0.0,-0.0289,-0.14389999,-0.0077,0.6859,-9.780399,-0.20799999,std
3.4906585e-05,0.0064228117,-5.235988e-05,-0.029,-0.14389999,-0.016999999,0.6861,-9.7803,-0.2085,std
0.00010471976,0.006405358,-0.00029670598,-0.0387,-0.124299996,-0.026899999,0.686,-9.780399,-0.2083,std
-0.0023038345,0.011082841,-0.0023561944,-0.058,-0.1144,-0.0175,0.6856,-9.780399,-0.20799999,std
-0.0012391837,0.010157816,-0.0026529005,-0.0578,-0.14379999,-0.037299998,0.6854,-9.780399,-0.2077,std
0.00080285146,0.007574729,-0.0007330383,-0.0381,-0.1144,-0.037499998,0.6853,-9.780399,-0.2076,std
0.0013962634,0.00726057,0.0010995574,-0.0381,-0.124199994,-0.047599997,0.6853,-9.780399,-0.20719999,std
0.0013089969,0.0023387412,0.0004363323,-0.057699997,-0.124199994,-0.038,0.6853,-9.780399,-0.20709999,std
0.0022165682,-0.0012042772,-0.0031241393,-0.047799997,-0.124199994,-0.0381,0.6853,-9.780399,-0.20699999,std
0.0023561944,-0.004066617,-0.0023387412,-0.0381,-0.124199994,-0.0382,0.6853,-9.780399,-0.2069,std
0.0025830872,-0.004939282,-0.0018151425,-0.0679,-0.124199994,-0.028099999,0.6857,-9.780399,-0.20719999,std
0.0015184365,-0.0064751715,-0.00027925268,-0.0881,-0.13409999,-0.018099999,0.6863,-9.780399,-0.20729999,std
0.00061086525,-0.0073303827,0.0007330383,-0.088199995,-0.124299996,-0.008599999,0.6864,-9.780399,-0.20709999,std
0.0027052604,-0.008761553,0.00038397242,-0.0683,-0.1144,-0.009,0.6861,-9.780399,-0.2067,std
0.0042586033,-0.008970993,-0.00026179937,-0.0681,-0.134,0.010199999,0.686,-9.780399,-0.20639999,std
0.0024958209,-0.0052185343,-0.0016929694,-0.078499995,-0.13409999,0.0,0.68649995,-9.780399,-0.206,std
0.0016580628,-0.0042062434,-0.0026005406,-0.0985,-0.14389999,-0.0101,0.68689996,-9.7803,-0.2056,std
-0.0010646508,-0.0028972465,-0.0024609142,-0.0792,-0.124299996,-0.020299999,0.6872,-9.7803,-0.2051,std
-0.00019198621,-0.00052359875,-0.0007853982,-0.0497,-0.0949,-0.020499999,0.6871,-9.7803,-0.2049,std
-0.0021642083,-0.0017278759,-0.0004886922,-0.010199999,-0.13409999,-0.020499999,0.68689996,-9.780399,-0.2049,std
-0.0021991148,-0.003228859,-0.0020071287,-0.0101,-0.1144,-0.0307,0.6867,-9.780399,-0.20459999,std
-0.0019373155,-0.008203047,-0.0028099802,-0.01,-0.124199994,-0.051,0.6867,-9.780399,-0.2038,std
0.0007330383,-0.006161012,-0.0023736479,-0.0201,-0.1144,-0.061199997,0.68689996,-9.780399,-0.2034,std
0.000715585,-0.0025481808,-0.0014835298,-0.0499,-0.14389999,-0.041899998,0.6874,-9.780399,-0.2032,std
-0.00066322513,-0.00013962634,-0.0018151425,-0.060099997,-0.13409999,-0.031799998,0.6877,-9.7803,-0.20349999,std
-0.0021991148,0.0008726646,-0.0014835298,-0.021,-0.11449999,-0.0219,0.6878,-9.7803,-0.20349999,std
-0.0034906585,0.0011868239,-0.0015707964,-0.0112,-0.1047,-0.0312,0.6879,-9.7803,-0.2041,std
-0.002042035,0.005131268,-0.0016580628,-0.040999997,-0.124299996,-0.0013,0.6882,-9.7803,-0.20449999,std
-0.0012915436,0.008552114,-0.0019024089,-0.0512,-0.13419999,0.0187,0.68869996,-9.7802,-0.205,std
-0.003281219,0.007347836,-0.000715585,-0.051599998,-0.1244,-0.0106999995,0.689,-9.7802,-0.205,std
-0.0027227136,0.008988446,-0.00010471976,-0.032199997,-0.114599995,-0.030299999,0.6893,-9.7802,-0.2049,std
-0.0034906585,0.009477138,-0.00033161257,-0.0128999995,-0.1244,-0.020399999,0.6896,-9.7802,-0.2051,std
-0.0052010813,0.0073303827,-0.00052359875,-0.0132,-0.1245,-0.0101,0.68979996,-9.7801,-0.20549999,std
-0.0029670596,0.0061959187,-0.00057595863,-0.0134,-0.1245,-0.0095,0.69009995,-9.7801,-0.20619999,std
-0.0015882496,0.0037873646,-0.00031415926,-0.0431,-0.1245,-0.0189,0.6904,-9.7801,-0.2065,std
-0.003036873,0.0034557518,-0.00029670598,-0.053299997,-0.12459999,-0.009,0.6907,-9.7801,-0.2067,std
-0.0020769418,0.0043284167,-0.00075049157,-0.0436,-0.12459999,-0.028099999,0.6908,-9.78,-0.20719999,std
-0.0027925267,0.0036651914,-0.002042035,-0.0436,-0.1148,-0.007999999,0.6908,-9.78,-0.2076,std
-0.0018849556,0.0021467549,0.0002443461,-0.0632,-0.12459999,-0.027099999,0.69089997,-9.78,-0.2082,std
-0.0025307273,0.0021293017,0.0,-0.0535,-0.12459999,-0.0164,0.69089997,-9.78,-0.2091,std
-0.00408407,-0.00013962634,0.0009773844,-0.0536,-0.1344,0.0037,0.691,-9.78,-0.2096,std
-0.0055152406,-0.0028448866,-0.00013962634,-0.0242,-0.12459999,-0.0254,0.691,-9.78,-0.20989999,std
-0.0036826448,-0.0004886922,0.0006283185,-0.0242,-0.1149,-0.015,0.691,-9.78,-0.2104,std
-0.0029670596,-0.0040142573,0.00027925268,-0.0537,-0.1149,-0.0245,0.6911,-9.7799,-0.21079999,std
-0.0035081117,-0.007696902,0.0009250245,-0.0541,-0.124699995,-0.0436,0.6915,-9.7799,-0.2113,std
-0.0054803337,-0.0127583565,-0.00020943952,-0.044099998,-0.1149,-0.023599999,0.6913,-9.7799,-0.21169999,std
-0.0052010813,-0.010175269,-0.00076794485,-0.0244,-0.124699995,-0.0034999999,0.6913,-9.7799,-0.2121,std
-0.005846853,-0.005969026,-0.00012217305,-0.0536,-0.1345,-0.0026999998,0.691,-9.7799,-0.2129,std
-0.0024085543,-0.003577925,-0.00033161257,-0.0536,-0.1444,-0.0212,0.691,-9.7799,-0.21409999,std
-0.0034208454,-0.0015707964,0.0004363323,-0.0435,-0.1149,-0.030199999,0.6908,-9.7799,-0.2148,std
-0.005183628,0.0017453292,-0.0004712389,-0.0532,-0.0953,-0.0394,0.6906,-9.7799,-0.2155,std
-0.004363323,0.002443461,-0.00041887903,-0.033299997,-0.1345,-0.0288,0.6904,-9.7799,-0.2163,std
-0.005078908,0.0030892328,0.00143117,-0.0234,-0.114999995,-0.0275,0.6903,-9.7799,-0.2175,std
-0.0048694685,0.0043807765,0.0030892328,-0.0137,-0.1248,-0.036199998,0.6903,-9.779799,-0.21869999,std
-0.0019547688,0.002321288,0.0023387412,-0.0234,-0.1444,-0.024999999,0.6902,-9.779799,-0.2201,std
-0.006544985,-0.0010297443,0.0007853982,-0.0332,-0.1444,-0.0539,0.6902,-9.779799,-0.22049999,std
-0.0038571777,-0.0065798913,0.0005061455,-0.042799998,-0.1346,-0.043399997,0.69,-9.779799,-0.22129999,std
-0.00408407,-0.008185594,0.0002443461,-0.042799998,-0.1347,-0.052199997,0.69009995,-9.779799,-0.2223,std
-0.0040317103,-0.006387905,0.00038397242,-0.0821,-0.1249,-0.0317,0.69009995,-9.779699,-0.22309999,std
-0.0074700094,-0.0058293995,-0.00059341197,-0.072,-0.1151,-0.040599998,0.68979996,-9.779699,-0.2241,std
-0.006457718,-0.008621926,-0.00033161257,-0.061499998,-0.1052,-0.0299,0.68909997,-9.779799,-0.225,std
-0.00408407,-0.006457718,0.0009424778,-0.051099997,-0.1052,-0.0197,0.6885,-9.779799,-0.2254,std
-0.0030543262,-0.004066617,0.0007330383,-0.0705,-0.1346,-0.0184,0.68829995,-9.779799,-0.2267,std
-0.00286234,-0.0026529005,0.00034906584,-0.050699998,-0.1248,-0.0273,0.6881,-9.779799,-0.2276,std
-0.00408407,-0.0032114058,-0.00027925268,-0.0309,-0.114999995,-0.046,0.68799996,-9.779799,-0.2285,std
-0.002443461,-0.0018325957,-3.4906585e-05,-0.0209,-0.0954,-0.054899998,0.6878,-9.779799,-0.2294,std
-0.0034382986,-0.0025307273,0.0036477381,-0.0308,-0.1249,-0.0338,0.6878,-9.779699,-0.23089999,std
-0.0024260078,-0.003106686,0.0034732053,-0.0405,-0.1347,-0.0324,0.6878,-9.779699,-0.2323,std
-0.003577925,-0.005602507,0.0018675023,-0.0206,-0.1151,-0.0315,0.6875,-9.779699,-0.2332,std
-0.0034382986,-0.008779006,-0.00027925268,-0.020399999,-0.1249,-0.0308,0.68729997,-9.779699,-0.2339,std
-0.0028972465,-0.009564404,-0.0011693706,-0.0301,-0.1249,-0.0301,0.6871,-9.779699,-0.23449999,std
-0.0031939526,-0.008150687,0.00019198621,-0.069299996,-0.1348,-0.029299999,0.6871,-9.779699,-0.23539999,std
-0.0030019663,-0.00418879,0.0017278759,-0.0887,-0.1348,-0.0385,0.68689996,-9.779699,-0.236,std
-0.0022514747,-0.0026529005,0.0028797933,-0.078099996,-0.1249,-0.0378,0.6861,-9.779699,-0.2367,std
-0.0028972465,-0.0009948377,0.002268928,-0.0381,-0.1151,-0.0471,0.6853,-9.779699,-0.23719999,std
-0.0004712389,-0.002635447,0.0006806784,-0.018,-0.1052,-0.046299998,0.6849,-9.779799,-0.23799999,std
-0.0014835298,-0.0038397242,0.00083775807,-0.0376,-0.1151,-0.0455,0.68479997,-9.779699,-0.23879999,std
-0.0016580628,-0.0057595866,0.0016929694,-0.057299998,-0.15429999,-0.0448,0.6849,-9.779699,-0.2395,std
-0.0016755161,-0.006318092,0.002635447,-0.0572,-0.1445,-0.034199998,0.68479997,-9.779699,-0.2403,std
-0.0028448866,-0.010018189,0.0037699111,-0.0469,-0.1249,-0.0433,0.68439996,-9.779699,-0.2409,std
-0.00055850536,-0.01308997,0.0042062434,-0.0267,-0.1249,-0.0134,0.68369997,-9.779799,-0.24139999,std
-0.0010821042,-0.016790068,0.006021386,-0.026099999,-0.1052,-0.0324,0.6832,-9.779799,-0.2421,std
-0.0013439035,-0.022113321,0.008150687,-0.0651,-0.1248,-0.051799998,0.6829,-9.779799,-0.24229999,std
-0.0036651914,-0.031293754,0.013002703,-0.0844,-0.1346,-0.0416,0.68259996,-9.779799,-0.2427,std
-0.004118977,-0.04194026,0.01802925,-0.064399995,-0.114999995,-0.0412,0.68219995,-9.779799,-0.24309999,std
-0.0031939526,-0.05173156,0.019268434,-0.0638,-0.1248,-0.0212,0.6816,-9.779799,-0.2435,std
-0.008011062,-0.061243605,0.015411257,-0.0727,-0.124699995,-0.030299999,0.6807,-9.7799,-0.24419999,std
-0.010576695,-0.06822492,0.0113620935,-0.0718,-0.1149,-0.0299,0.6798,-9.78,-0.2445,std
-0.004363323,-0.06976081,0.010541788,-0.1195,-0.105,-0.0197,0.6784,-9.78,-0.24499999,std
-0.006405358,-0.069848076,0.009442232,-0.1567,-0.1147,-0.019,0.67649996,-9.7802,-0.2456,std
-0.0074700094,-0.06428047,0.009808751,-0.1836,-0.13409999,-0.018,0.67399997,-9.7803,-0.24669999,std
-0.007278023,-0.063093655,0.012252212,-0.1308,-0.1437,-0.0067999996,0.6702,-9.780499,-0.2481,std
-0.0068416907,-0.06283186,0.009389872,-0.107099995,-0.1337,-0.0055,0.66609997,-9.7808,-0.24939999,std
-0.0058643064,-0.06195919,0.0076270886,-0.0841,-0.1237,-0.0128999995,0.6627,-9.7809,-0.2518,std
-0.009162978,-0.05639159,0.0037873646,-0.0422,-0.1138,-0.0295,0.65999997,-9.781,-0.2548,std
-0.009808751,-0.05810201,0.0016057029,-0.0495,-0.1136,-0.0179,0.65749997,-9.781199,-0.2566,std
-0.010611602,-0.057857666,0.002443461,-0.0276,-0.1136,-0.035299998,0.6552,-9.7813,-0.2588,std
-0.011065387,-0.058660515,0.006405358,-0.0155,-0.1135,-0.042799998,0.6529,-9.7814,-0.2611,std
-0.007400196,-0.06250024,0.010838495,-0.022499999,-0.1329,-0.0111,0.6501,-9.7815,-0.2634,std
-0.010245083,-0.06637487,0.010663962,-0.0104,-0.1329,-0.0286,0.6479,-9.7816,-0.26549998,std
-0.010803588,-0.06710791,0.008290314,-0.0084999995,-0.1034,-0.0266,0.64599997,-9.7816,-0.26749998,std
-0.012095132,-0.06445501,0.0053407075,-0.0074,-0.1034,-0.0339,0.6448,-9.7816,-0.26999998,std
-0.011065387,-0.05979498,0.0033859387,-0.0655,-0.122999996,-0.0312,0.6441,-9.7816,-0.27269998,std
-0.009424778,-0.05256932,0.0016755161,-0.1235,-0.1426,-0.0185,0.6433,-9.7816,-0.2756,std
-0.010663962,-0.04724606,0.00286234,-0.0924,-0.1426,-0.0352,0.6416,-9.7816,-0.2785,std
-0.009459685,-0.038519416,0.00418879,-0.060399998,-0.1131,-0.042799998,0.639,-9.7817,-0.28079998,std
-0.012095132,-0.0371057,0.004049164,-0.0285,-0.1326,-0.039899997,0.6365,-9.781799,-0.2836,std
-0.011780973,-0.03715806,0.0050440016,-0.036199998,-0.1228,-0.046699997,0.6344,-9.781899,-0.2866,std
-0.010646508,-0.03111922,0.0050614546,0.0142,-0.103099994,-0.053299997,0.6329,-9.781899,-0.2898,std
-0.010227629,-0.025080381,0.0045029493,-0.0042,-0.113,-0.040599998,0.6318,-9.781799,-0.29279998,std
-0.010663962,-0.019355701,0.004660029,-0.0034999999,-0.1326,-0.028199999,0.6311,-9.781799,-0.2953,std
-0.009878564,-0.011815879,0.005986479,-0.0026,-0.1228,-0.0058999998,0.63019997,-9.781799,-0.29799998,std
-0.011257374,-0.0017627826,0.007347836,-0.0112,-0.113,-0.042799998,0.62909997,-9.781799,-0.3004,std
-0.012793263,0.00413643,0.005427974,-0.0199,-0.1425,-0.039899997,0.62799996,-9.781799,-0.3032,std
-0.012234758,0.01144936,0.0033510323,0.020499999,-0.1327,-0.0273,0.6267,-9.781799,-0.306,std
-0.011780973,0.015603243,0.002443461,0.0413,-0.103199996,-0.024799999,0.6254,-9.781799,-0.3085,std
-0.0131946895,0.016737707,0.0052185343,0.012999999,-0.1228,-0.0323,0.6243,-9.781799,-0.3108,std
-0.012060225,0.017872171,0.0050963615,-0.024999999,-0.122899994,-0.03,0.6232,-9.781799,-0.3132,std
-0.011292281,0.0136833815,0.0061086523,0.0253,-0.113,-0.057299998,0.6218,-9.781799,-0.3153,std
-0.010122909,0.009232792,0.0043458696,0.0268,-0.1228,-0.0648,0.6203,-9.781799,-0.3175,std
-0.009110618,0.0090233525,0.0029321532,-0.0014,-0.1326,-0.0624,0.6192,-9.781799,-0.32,std
-0.009320058,0.009546951,0.002024582,-0.049799997,-0.122899994,-0.0797,0.6185,-9.781799,-0.3223,std
-0.00832522,0.010227629,0.0037873646,-0.0591,-0.1425,-0.077599995,0.6181,-9.7817,-0.32439998,std
-0.008447394,0.012095132,0.004712389,-0.0581,-0.1033,-0.0752,0.6171,-9.7817,-0.3268,std
-0.008918633,0.012147492,0.0062482785,-0.0669,-0.1131,-0.063,0.616,-9.7817,-0.3292,std
-0.0065973448,0.009843657,0.0063704518,-0.055999998,-0.1327,-0.0513,0.615,-9.7817,-0.331,std
-0.0048694685,0.010367256,0.0056374134,-0.055099998,-0.122899994,-0.069,0.6141,-9.7817,-0.3329,std
-0.006562438,0.008831366,0.0058817593,-0.0643,-0.122999996,-0.057499997,0.6135,-9.7817,-0.3346,std
-0.006789331,0.00720821,0.0034906585,-0.0835,-0.1328,-0.0656,0.6131,-9.7816,-0.3364,std
-0.0045727626,0.0030194195,0.002565634,-0.092599995,-0.122999996,-0.0641,0.6123,-9.7816,-0.33789998,std
-0.004642576,0.0011868239,0.002984513,-0.0622,-0.113199994,-0.0429,0.6114,-9.7816,-0.3394,std
-0.0040317103,0.000715585,0.003700098,-0.0806,-0.1328,-0.0609,0.6102,-9.7817,-0.341,std
-0.006754424,0.00066322513,0.002391101,-0.0793,-0.1131,-0.059699997,0.6089,-9.7817,-0.34219998,std
-0.0051661744,0.0014486233,-0.00041887903,-0.088,-0.122899994,-0.0687,0.6078,-9.7817,-0.34309998,std
-0.0069987704,-0.0012740904,-0.0011693706,-0.0771,-0.1425,-0.057699997,0.6066,-9.781799,-0.3443,std
-0.007958702,-5.235988e-05,-0.00052359875,-0.0861,-0.1327,-0.056399997,0.6059,-9.781799,-0.34559998,std
-0.008290314,-0.0014486233,-0.0016580628,-0.0954,-0.1327,-0.055499997,0.6053,-9.781799,-0.34649998,std
-0.008831366,-0.002635447,-0.0021991148,-0.0849,-0.1228,-0.0546,0.60469997,-9.781799,-0.34739998,std
-0.008621926,-0.0030543262,-0.0046774824,-0.0449,-0.1228,-0.044,0.60389996,-9.781799,-0.3482,std
-0.0095120445,-0.003752458,-0.0051661744,-0.073699996,-0.103199996,-0.0426,0.6033,-9.781799,-0.3495,std
-0.010803588,-0.0049916417,-0.0037873646,-0.0836,-0.1327,-0.0416,0.6033,-9.7817,-0.3505,std
-0.008307767,-0.0043458696,-0.003036873,-0.093499996,-0.122899994,-0.049999997,0.6034,-9.7817,-0.352,std
-0.009826204,-0.0052359877,-0.0020594886,-0.093499996,-0.122999996,-0.0484,0.6034,-9.7816,-0.35349998,std
-0.0095294975,-0.0043807765,-0.0027750735,-0.0937,-0.10349999,-0.0468,0.6037,-9.7816,-0.3552,std
-0.008098328,-0.007400196,-0.001850049,-0.0646,-0.10349999,-0.0548,0.604,-9.7815,-0.357,std
-0.00710349,-0.008744099,-0.0008726646,-0.085,-0.1331,-0.043199997,0.6048,-9.7814,-0.3588,std
-0.008290314,-0.010210176,-0.0024609142,-0.095699996,-0.13319999,-0.051099997,0.60569996,-9.781199,-0.36069998,std
-0.008761553,-0.009005899,-0.0039618975,-0.0865,-0.13329999,-0.048899997,0.6063,-9.781099,-0.3629,std
-0.010402163,-0.0078016217,-0.0069638635,-0.0674,-0.1138,-0.0372,0.60679996,-9.781,-0.36479998,std
-0.010384709,-0.003979351,-0.006073746,-0.0971,-0.1335,-0.0354,0.607,-9.7809,-0.36659998,std
-0.011798426,-0.0005061455,-0.008115781,-0.0779,-0.1336,-0.043199997,0.60749996,-9.7808,-0.3685,std
-0.01563815,0.005427974,-0.008621926,-0.078099996,-0.1239,-0.0415,0.6077,-9.7807,-0.3703,std
-0.016458455,0.010506882,-0.00832522,-0.0585,-0.1239,-0.049799997,0.6077,-9.7807,-0.3718,std
-0.014014994,0.010768682,-0.0061784657,-0.0196,-0.124,-0.0284,0.608,-9.7806,-0.37359998,std
-0.012007865,0.007871435,-0.00286234,-0.03,-0.1143,-0.036399998,0.60859996,-9.780499,-0.37539998,std
-0.007888888,0.010088003,-0.0021293017,-0.0116,-0.124299996,-0.053799998,0.6098,-9.7803,-0.37759998,std
-0.0006283185,0.009651671,-0.003979351,0.0069,-0.114599995,-0.061499998,0.6109,-9.7802,-0.3797,std
-0.001012291,0.010419616,-0.002268928,-0.014099999,-0.12459999,-0.039499998,0.6123,-9.78,-0.382,std
-0.004886922,0.0070860367,-0.002513274,-0.045199998,-0.1445,-0.0757,0.61399996,-9.779799,-0.38509998,std
-0.005427974,0.0016057029,-0.003228859,-0.066599995,-0.1251,-0.0625,0.61579996,-9.7795,-0.3885,std
-0.0038920841,0.005410521,-0.0030892328,-0.0775,-0.1449,-0.0307,0.6168,-9.7794,-0.3909,std
-0.0024958209,0.010541788,-0.002687807,-0.078,-0.1744,-0.0088,0.6173,-9.7792,-0.39319998,std
-0.00066322513,0.0085870195,-0.003159046,-0.0391,-0.1255,-0.026999999,0.6177,-9.7792,-0.3946,std
-0.00020943952,0.007923795,-0.004782202,-0.1085,-0.1059,-0.0858,0.6185,-9.779099,-0.3947,std
0.0004712389,0.007696902,-0.007871435,-0.0796,-0.1451,-0.1347,0.6189,-9.779099,-0.39479998,std
-0.001256637,0.0090408055,-0.0066147977,-0.031,-0.106,-0.104399994,0.61939996,-9.778999,-0.39569998,std
-0.0017453292,0.010471975,-0.0048694685,-0.0315,-0.1061,-0.0543,0.6199,-9.7789,-0.3967,std
-0.0006806784,0.008726646,-0.003822271,-0.0517,-0.1257,-0.0633,0.62049997,-9.7789,-0.39749998,std
0.00019198621,0.0047996556,-0.0044505894,-0.0326,-0.1356,-0.072799996,0.621,-9.7788,-0.3979,std
6.981317e-05,0.00080285146,-0.0062482785,-0.0528,-0.0964,-0.0923,0.62149996,-9.7788,-0.3979,std
0.0026179939,0.00019198621,-0.006492625,-0.0635,-0.1259,-0.082499996,0.6224,-9.7787,-0.3979,std
0.002984513,0.0006981317,-0.005410521,-0.0748,-0.14559999,-0.063099995,0.6239,-9.7786,-0.3978,std
0.0017278759,0.0016057029,-0.004468043,-0.076,-0.13589999,-0.0727,0.6252,-9.7786,-0.3979,std
0.00026179937,0.0019896755,-0.005497787,-0.057299998,-0.116299994,-0.1019,0.6261,-9.7785,-0.39819998,std
0.0013788101,0.0021642083,-0.0039095376,-0.038399998,-0.106599994,-0.0626,0.6268,-9.778399,-0.39819998,std
0.0031241393,0.0051661744,-0.0037350047,-0.0392,-0.12619999,-0.042999998,0.62759995,-9.778399,-0.39819998,std
0.0035604716,0.0031415927,-0.0042062434,-0.0698,-0.1361,-0.0528,0.6288,-9.778299,-0.39819998,std
0.00424115,0.0035953782,-0.0019547688,-0.061199997,-0.1166,-0.0827,0.6299,-9.778299,-0.39769998,std
0.0049741883,0.0047472958,-0.0019547688,-0.0425,-0.1362,-0.0832,0.63089997,-9.7782,-0.3972,std
0.0056199604,0.003228859,-0.0015358897,-0.0433,-0.1264,-0.0541,0.6317,-9.7782,-0.3969,std
0.004956735,0.0036651914,-0.0015184365,-0.0246,-0.1265,-0.0738,0.63269997,-9.7781,-0.39679998,std
0.006510078,0.0004712389,-0.0013962634,-0.035099998,-0.11669999,-0.054399997,0.6333,-9.7781,-0.39659998,std
0.0026005406,0.0010821042,-0.0012915436,-0.0554,-0.11669999,-0.0453,0.634,-9.7781,-0.39589998,std
0.0044854963,0.0021991148,-0.0025830872,-0.066,-0.1266,-0.0557,0.6347,-9.778,-0.3953,std
0.007819075,0.0012217305,-0.0008901179,-0.0466,-0.1266,-0.037,0.635,-9.7781,-0.3944,std
0.008499754,0.00013962634,-0.00022689281,-0.0568,-0.1363,-0.0576,0.6354,-9.7781,-0.39339998,std
0.0073303827,0.0007853982,0.00045378561,-0.047199998,-0.1265,-0.0587,0.6356,-9.7781,-0.39229998,std
0.0056199604,0.0004886922,-0.00026179937,-0.047399998,-0.11669999,-0.0596,0.6358,-9.7781,-0.39139998,std
0.009285152,0.00019198621,-0.00031415926,-0.0378,-0.1166,-0.051099997,0.636,-9.7782,-0.3901,std
0.008115781,-0.0006283185,-0.00017453292,-0.0379,-0.1264,-0.0515,0.6361,-9.7782,-0.3897,std
0.009354965,0.0016580628,0.0,-0.0383,-0.1264,-0.0425,0.6365,-9.7782,-0.38889998,std
0.0066497047,0.0016406095,0.0,-0.0482,-0.1362,-0.044,0.63659996,-9.7782,-0.3874,std
0.00837758,-0.00013962634,3.4906585e-05,-0.0383,-0.106699996,-0.0554,0.6365,-9.778299,-0.3858,std
0.0085695665,-0.00045378561,0.0021642083,-0.0381,-0.116399996,-0.066599995,0.63629997,-9.778399,-0.38439998,std
0.005654867,-0.00075049157,0.0027750735,-0.0185,-0.12619999,-0.038399998,0.63629997,-9.778399,-0.3832,std
0.0063529983,-0.0028972465,0.001012291,-0.038,-0.116299994,-0.049799997,0.6362,-9.7785,-0.3816,std
0.0074874624,-0.0021642083,0.0019198621,-0.028099999,-0.13589999,-0.0611,0.6362,-9.7786,-0.38009998,std
0.0067195175,-0.0034382986,0.0013439035,-0.0477,-0.096599996,-0.0335,0.6361,-9.7786,-0.37829998,std
0.006981317,-0.0014486233,0.0011519173,-0.0574,-0.1357,-0.0446,0.636,-9.7787,-0.377,std
0.0070685833,0.00036651915,0.0017802358,-0.067099996,-0.1161,-0.065799996,0.63589996,-9.7788,-0.37539998,std
0.002443461,0.0023561944,0.001256637,-0.0371,-0.0963,-0.0576,0.6353,-9.7789,-0.37379998,std
0.0046251225,0.0036826448,0.00057595863,-0.046299998,-0.115899995,-0.039,0.6347,-9.7789,-0.37269998,std
0.003996804,0.0041538836,0.002042035,-0.0263,-0.1158,-0.030399999,0.6343,-9.778999,-0.3716,std
0.0021642083,0.0018325957,0.0024085543,-0.025799999,-0.1353,-0.031799998,0.63379997,-9.779099,-0.37019998,std
0.0017627826,0.00017453292,0.0017278759,-0.044999998,-0.1451,-0.052699998,0.63339996,-9.7792,-0.3689,std
0.004415683,0.00019198621,-5.235988e-05,-0.015299999,-0.1156,-0.0539,0.6331,-9.7792,-0.36769998,std
0.0029496064,-0.0009948377,0.001012291,-0.034399997,-0.12529999,-0.0552,0.6326,-9.7793,-0.3664,std
0.0022165682,0.00022689281,0.0028448866,-0.0634,-0.10569999,-0.0556,0.6322,-9.7794,-0.366,std
0.0035604716,-0.00010471976,0.0040317103,-0.092599995,-0.115399994,-0.046699997,0.63199997,-9.7794,-0.3651,std
0.00090757123,-0.00022689281,0.0031764992,-0.062699996,-0.1055,-0.0475,0.6315,-9.7795,-0.36429998,std
0.0017976891,0.0004886922,0.002391101,-0.0523,-0.1251,-0.038,0.63089997,-9.7795,-0.36389998,std
0.0043807765,-0.00012217305,0.003630285,-0.0616,-0.1349,-0.0187,0.6304,-9.7796,-0.3636,std
0.00413643,0.0030019663,0.003979351,-0.081099994,-0.14459999,-0.0392,0.6303,-9.7796,-0.3628,std
0.003752458,0.0006457718,0.0017278759,-0.080699995,-0.14459999,-0.0396,0.6299,-9.7796,-0.36229998,std
0.003822271,5.235988e-05,0.0029321532,-0.070199996,-0.1249,-0.049799997,0.6292,-9.779699,-0.362,std
0.004171337,-0.0006981317,0.004537856,-0.03,-0.1052,-0.0504,0.6282,-9.779799,-0.36139998,std
0.0017627826,-0.0032637657,0.0035953782,-0.048899997,-0.1248,-0.050499998,0.6275,-9.779799,-0.3613,std
0.0021991148,-0.005323254,0.0038048178,-0.0581,-0.1149,-0.0605,0.6268,-9.7799,-0.3611,std
0.0023736479,-0.0076794485,0.0031764992,-0.0572,-0.124699995,-0.0515,0.626,-9.78,-0.3603,std
0.0035255651,-0.007836528,0.00286234,-0.066199996,-0.12459999,-0.0523,0.62509996,-9.78,-0.3595,std
0.0029670596,-0.006736971,0.0022514747,-0.0755,-0.1245,-0.053,0.6247,-9.7801,-0.3588,std
0.0027401668,-0.005253441,0.002984513,-0.0846,-0.1244,-0.0537,0.624,-9.7802,-0.3581,std
0.0016580628,-0.0032637657,0.0022165682,-0.063999996,-0.1244,-0.054399997,0.62299997,-9.7803,-0.3574,std
0.0010821042,-0.004590216,0.003228859,-0.0436,-0.124299996,-0.0547,0.6222,-9.7803,-0.35709998,std
0.0012217305,-0.0041015237,0.0034557518,-0.032899998,-0.124199994,-0.0648,0.6213,-9.780399,-0.3568,std
0.0013089969,-0.003752458,0.0037175512,-0.041899998,-0.1144,-0.0455,0.62049997,-9.780499,-0.3565,std
0.0021816615,-0.0016929694,0.0015184365,-0.0412,-0.1339,-0.046,0.61969995,-9.780499,-0.3559,std
0.0013264503,-0.00076794485,0.002443461,-0.0308,-0.124,-0.0563,0.6191,-9.7806,-0.35549998,std
0.0007853982,-0.0010471975,0.002321288,-0.049599998,-0.104399994,-0.0469,0.6184,-9.7806,-0.3551,std
0.00027925268,-0.0019024089,0.002635447,-0.0392,-0.1337,-0.047199998,0.6178,-9.7807,-0.3548,std
0.0007853982,-0.004642576,0.0032637657,-0.0189,-0.114099994,-0.0669,0.6171,-9.7807,-0.3547,std
0.0009773844,-0.0038920841,0.0019547688,-0.0279,-0.114,-0.0572,0.6163,-9.7808,-0.35459998,std
0.00095993106,-0.0063006384,0.002391101,-0.0368,-0.114,-0.047599997,0.61539996,-9.7808,-0.35439998,std
-0.00031415926,-0.0065798913,0.003630285,-0.055999998,-0.1237,-0.0576,0.615,-9.7809,-0.3541,std
0.00012217305,-0.0074874624,0.0024260078,-0.0749,-0.1139,-0.048,0.6142,-9.7809,-0.354,std
-0.0013439035,-0.008988446,0.0010646508,-0.084,-0.1138,-0.048,0.6135,-9.781,-0.354,std
0.00029670598,-0.0051487214,0.002513274,-0.0734,-0.1432,-0.0479,0.6128,-9.781,-0.3541,std
-0.0011693706,-0.0010821042,0.0014660766,-0.082499996,-0.1432,-0.0381,0.612,-9.781099,-0.354,std
-0.0015009831,0.0015184365,0.001134464,-0.081999995,-0.113699995,-0.0578,0.61149997,-9.781099,-0.3539,std
-0.002042035,0.0018849556,0.0013788101,-0.071499996,-0.1039,-0.0579,0.6109,-9.781099,-0.3539,std
-0.00036651915,0.002391101,0.0030019663,-0.0413,-0.1038,-0.067499995,0.6101,-9.781199,-0.3541,std
-0.00052359875,0.0006981317,0.0044505894,-0.021,-0.1136,-0.047799997,0.6094,-9.781199,-0.3542,std
0.00082030473,-0.0035953782,0.004607669,-0.030499998,-0.13319999,-0.047399998,0.6091,-9.781199,-0.35459998,std
0.0019024089,-0.009285152,0.0043982295,-0.02,-0.12329999,-0.0473,0.6084,-9.7813,-0.3547,std
0.003228859,-0.010733775,0.004642576,-0.0392,-0.1037,-0.076299995,0.608,-9.7813,-0.3551,std
0.0029321532,-0.008621926,0.0039618975,-0.048699997,-0.12329999,-0.056199998,0.6076,-9.7813,-0.35549998,std
0.0026005406,-0.0057595866,0.0021642083,-0.0581,-0.1331,-0.0557,0.60719997,-9.7813,-0.35599998,std
0.00045378561,-0.0025307273,-0.00020943952,-0.0769,-0.12329999,-0.0556,0.6064,-9.7813,-0.35619998,std
-0.0024260078,0.00041887903,-0.00029670598,-0.0857,-0.1232,-0.0652,0.6055,-9.7814,-0.35639998,std
0.0014137167,0.004642576,0.00034906584,-0.084699996,-0.1232,-0.055499997,0.6044,-9.7815,-0.3563,std
-5.235988e-05,0.0085695665,0.0013439035,-0.0346,-0.1231,-0.0557,0.6034,-9.7815,-0.3561,std
0.00034906584,0.010262536,0.0011693706,-0.053099997,-0.1328,-0.0758,0.6023,-9.7816,-0.3556,std
0.00143117,0.007278023,-1.7453292e-05,-0.0032,-0.1131,-0.0958,0.60139996,-9.7817,-0.3552,std
0.0031764992,0.004607669,0.0009424778,-0.012399999,-0.1131,-0.0962,0.6008,-9.7817,-0.3548,std
0.0022340214,-0.00055850536,0.0018849556,-0.012399999,-0.1033,-0.0862,0.6008,-9.7817,-0.355,std
0.0033859387,-0.0015358897,0.0016406095,-0.0319,-0.122899994,-0.0757,0.60069996,-9.7817,-0.3557,std
0.0027052604,-0.002094395,0.0012042772,-0.0416,-0.1327,-0.066199996,0.6006,-9.7817,-0.3554,std
0.0013962634,-0.0029670596,0.00026179937,-0.0413,-0.122899994,-0.0466,0.6003,-9.781799,-0.35529998,std
0.0018325957,-0.0017802358,-0.00026179937,-0.0802,-0.1228,-0.0468,0.59999996,-9.781799,-0.3552,std
0.0038048178,-0.00083775807,0.00026179937,-0.0998,-0.1326,-0.0471,0.5999,-9.781799,-0.3549,std
0.002024582,0.0023038345,-0.00029670598,-0.0897,-0.1326,-0.0477,0.5997,-9.781799,-0.3543,std
0.00036651915,0.0006806784,-0.0014486233,-0.0695,-0.1227,-0.048,0.5991,-9.781899,-0.354,std
-0.00045378561,8.726646e-05,-0.00095993106,-0.0495,-0.1227,-0.0682,0.5987,-9.781899,-0.3534,std
0.0006283185,0.0007853982,-0.00029670598,-0.0589,-0.1227,-0.049,0.59819996,-9.782,-0.353,std
0.00034906584,0.000715585,-0.000715585,-0.0488,-0.13239999,-0.0491,0.598,-9.782,-0.3529,std
0.00020943952,0.0,-0.0015358897,-0.048699997,-0.1226,-0.0493,0.5979,-9.782,-0.35259998,std
0.0008726646,-0.002094395,-0.0018849556,-0.029,-0.1226,-0.0695,0.5977,-9.782,-0.35209998,std
0.0017104227,-0.0025481808,-0.0013962634,-0.0387,-0.1226,-0.0795,0.5977,-9.782,-0.35189998,std
0.0009250245,-0.0014486233,-0.0011170107,-0.029099999,-0.13239999,-0.0696,0.5979,-9.782,-0.35189998,std
0.0006457718,0.0013788101,-0.001972222,-0.0683,-0.13239999,-0.0694,0.5979,-9.782,-0.3522,std
-0.00019198621,0.00085521134,-0.001134464,-0.078,-0.13239999,-0.0596,0.5977,-9.782,-0.3522,std
0.0,0.0010297443,-0.001553343,-0.038799997,-0.112799995,-0.059499998,0.5977,-9.782,-0.3523,std
0.00066322513,0.0032637657,-3.4906585e-05,-0.048699997,-0.112799995,-0.0594,0.5979,-9.782,-0.3524,std
0.0009250245,0.0036477381,0.0,-0.047799997,-0.112799995,-0.0391,0.5969,-9.782,-0.3531,std
0.00066322513,0.0021467549,-0.0004886922,-0.075899996,-0.14209999,-0.0484,0.5956,-9.7821,-0.3536,std
0.0027052604,0.005602507,-0.0011693706,-0.045599997,-0.13229999,-0.057299998,0.5948,-9.7821,-0.3545,std
0.001972222,0.0031241393,-0.00033161257,-0.0547,-0.14209999,-0.0565,0.5941,-9.7821,-0.3552,std
0.0022863813,0.0034208454,-6.981317e-05,-0.024799999,-0.1127,-0.074599996,0.5936,-9.7821,-0.3568,std
0.0026529005,0.0015707964,-0.00022689281,-0.0245,-0.13229999,-0.0734,0.5933,-9.7821,-0.35799998,std
0.0017453292,0.00029670598,8.726646e-05,-0.023899999,-0.1127,-0.0625,0.5927,-9.7821,-0.35909998,std
0.0036826448,-0.0014486233,0.0005061455,-0.0521,-0.1127,-0.0712,0.5915,-9.7821,-0.3602,std
0.0037699111,-0.0032986724,0.0012217305,-0.051099997,-0.122499995,-0.070099995,0.5905,-9.7821,-0.3613,std
0.0031939526,-0.0035430184,0.0006457718,-0.0415,-0.14209999,-0.060799997,0.5907,-9.7821,-0.3608,std
0.002268928,-0.0069987704,0.00026179937,-0.0513,-0.13229999,-0.0611,0.5907,-9.7822,-0.36049998,std
0.003228859,-0.004886922,0.00045378561,-0.0513,-0.12239999,-0.051799998,0.5906,-9.7822,-0.35999998,std
0.0030892328,-0.0047472958,0.000715585,-0.0512,-0.1126,-0.052199997,0.5905,-9.7822,-0.35959998,std
0.0024609142,-0.0041538836,0.00057595863,-0.0315,-0.12239999,-0.0622,0.5904,-9.7822,-0.3594,std
0.004118977,-0.0029321532,0.001256637,-0.040999997,-0.12239999,-0.043199997,0.5902,-9.7822,-0.3588,std
0.004171337,-0.003630285,0.0010821042,-0.0211,-0.1223,-0.0635,0.58989996,-9.7823,-0.3581,std
0.0040142573,-0.004276057,0.0045727626,-0.0307,-0.1125,-0.044499997,0.5897,-9.7823,-0.3575,std
0.0031939526,-0.0047996556,0.003159046,-0.0207,-0.1321,-0.064399995,0.5895,-9.7823,-0.3572,std
0.0028972465,-0.0057595866,0.0026005406,-0.020499999,-0.1222,-0.055099998,0.5893,-9.7824,-0.3567,std
0.0045204028,-0.003700098,0.0016231562,-0.0301,-0.1222,-0.0458,0.5891,-9.7824,-0.35619998,std
0.00413643,-0.0034208454,0.0028797933,-0.0201,-0.1222,-0.0462,0.58889997,-9.7824,-0.3558,std
0.0010297443,-0.0045727626,0.0026179939,-0.059,-0.122099996,-0.0568,0.58849996,-9.782499,-0.355,std
0.0016580628,-0.006510078,0.002391101,-0.0391,-0.122099996,-0.0477,0.5882,-9.782499,-0.3543,std
0.0022514747,-0.004537856,0.0024958209,-0.0185,-0.1122,-0.058199998,0.5872,-9.782599,-0.3536,std
0.0033859387,-0.003159046,0.002565634,-0.0374,-0.1318,-0.048899997,0.5865,-9.7827,-0.353,std
0.0031415927,-0.00012217305,0.0011868239,-0.0367,-0.1317,-0.049399998,0.5859,-9.7827,-0.35259998,std
0.001012291,0.0014137167,0.000715585,-0.0265,-0.102199994,-0.0797,0.5855,-9.7828,-0.35169998,std
0.00029670598,0.0024609142,6.981317e-05,-0.016099999,-0.111999996,-0.0705,0.58489996,-9.7828,-0.35099998,std
0.00036651915,0.002984513,0.0025481808,-0.035099998,-0.1217,-0.051,0.5843,-9.7829,-0.3509,std
0.00040142573,0.0039618975,0.003979351,-0.0149,-0.1413,-0.0513,0.5837,-9.7829,-0.3507,std
0.0027227136,0.0023561944,0.0028274334,-0.0143,-0.1413,-0.081,0.58309996,-9.783,-0.3504,std
0.0035953782,-0.001256637,0.0011868239,0.0058,-0.1118,-0.0817,0.5825,-9.783,-0.3497,std
0.0037873646,-0.002391101,0.0021816615,-0.0134,-0.1117,-0.081999995,0.5822,-9.7831,-0.34939998,std
0.0032637657,-0.0038920841,0.0032463125,-0.0524,-0.1117,-0.0918,0.5819,-9.7831,-0.34939998,std
0.0038920841,-0.0034906585,0.0052010813,-0.081599995,-0.14109999,-0.0721,0.58169997,-9.7831,-0.34939998,std
0.0041538836,-0.0010995574,0.003403392,-0.0711,-0.1313,-0.0525,0.5811,-9.7831,-0.3495,std
0.003822271,-0.0014660766,0.0036477381,-0.050699998,-0.1116,-0.042799998,0.5803,-9.783199,-0.34939998,std
0.0069464105,-0.0030543262,0.0030019663,-0.069699995,-0.1214,-0.023699999,0.5797,-9.783199,-0.3488,std
0.0076270886,-0.0021991148,0.004712389,-0.0791,-0.1213,-0.043899998,0.57919997,-9.783299,-0.34829998,std
0.005078908,-6.981317e-05,0.003577925,-0.0589,-0.1311,-0.074,0.5787,-9.783299,-0.34759998,std
0.0031241393,-0.0013089969,0.0014835298,-0.0484,-0.131,-0.054899998,0.578,-9.7834,-0.347,std
0.0037175512,-0.00418879,0.0,0.0016,-0.12109999,-0.0556,0.5768,-9.7835,-0.3463,std
0.002024582,-0.004171337,0.0028797933,-0.026899999,-0.101399995,-0.056399997,0.5761,-9.7836,-0.34559998,std
0.0032114058,-0.006981317,0.0044505894,-0.0458,-0.121,-0.057099998,0.5753,-9.7836,-0.34489998,std
0.004660029,-0.0066497047,0.0046774824,-0.0451,-0.1209,-0.058399998,0.5746,-9.7837,-0.3436,std
0.0056723203,-0.009634217,0.002635447,-0.0245,-0.110999994,-0.079399996,0.5736,-9.7838,-0.34219998,std
0.004310963,-0.01144936,0.0021118484,-0.023599999,-0.1011,-0.060799997,0.5728,-9.783899,-0.34109998,std
0.006038839,-0.012095132,0.0023561944,-0.0526,-0.1305,-0.061199997,0.5724,-9.783899,-0.3407,std
0.0042586033,-0.012444197,0.004939282,-0.0918,-0.1305,-0.061899997,0.57229996,-9.783999,-0.3401,std
0.0045029493,-0.013805554,0.007993608,-0.061699998,-0.1304,-0.0622,0.57159996,-9.783999,-0.3398,std
0.0052185343,-0.0150621915,0.008203047,-0.050899997,-0.1205,-0.052899998,0.5706,-9.7841,-0.33929998,std
0.0068940506,-0.019582594,0.009128072,-0.030199999,-0.1008,-0.043899998,0.5696,-9.7842,-0.3385,std
0.007592182,-0.013351769,0.008517207,-0.059,-0.110599995,-0.0546,0.569,-9.7843,-0.3375,std
0.0064228117,-0.0104370685,0.006405358,-0.0879,-0.120299995,-0.0455,0.56839997,-9.7843,-0.3369,std
0.005550147,-0.0066497047,0.006736971,-0.0677,-0.1398,-0.0367,0.5678,-9.7844,-0.33589998,std
0.003926991,-0.0047472958,0.006387905,-0.0665,-0.1398,-0.0569,0.5667,-9.7845,-0.33519998,std
0.0025307273,-0.002268928,0.006143559,-0.0354,-0.12979999,-0.0576,0.5649,-9.784599,-0.33449998,std
0.0032114058,-0.00040142573,0.00710349,-0.0042,-0.119899996,-0.058399998,0.5632,-9.784699,-0.3337,std
0.0040142573,-0.0008901179,0.006806784,0.0369,-0.100099996,-0.039899997,0.56119996,-9.7849,-0.33269998,std
0.002687807,-0.005846853,0.006161012,0.0387,-0.099999994,-0.060799997,0.55939996,-9.785,-0.33139998,std
0.0013089969,-0.008970993,0.0067195175,-0.0186,-0.109699994,-0.061899997,0.55799997,-9.7851,-0.3303,std
0.0019896755,-0.008464847,0.005742133,-0.036599997,-0.119399995,-0.053099997,0.5564,-9.785299,-0.3292,std
0.0022340214,-0.008848819,0.00572468,-0.0256,-0.1193,-0.043899998,0.5552,-9.785399,-0.3286,std
0.0035953782,-0.010227629,0.0068242373,-0.0341,-0.129,-0.054199997,0.5539,-9.785399,-0.32819998,std
0.0032637657,-0.0099832835,0.008185594,-0.0425,-0.12889999,-0.0449,0.5524,-9.7855,-0.3276,std
0.00418879,-0.0071383966,0.0075398223,-0.050899997,-0.1092,-0.065299995,0.551,-9.7856,-0.3269,std
0.0056199604,-0.0039618975,0.009389872,-0.0298,-0.11889999,-0.0756,0.5496,-9.7857,-0.32639998,std
0.0064751715,-0.0044854963,0.010105456,-0.0285,-0.109,-0.0756,0.54829997,-9.7858,-0.3263,std
0.005358161,-0.006981317,0.010105456,-0.0469,-0.1383,-0.0563,0.547,-9.7859,-0.3261,std
0.005742133,-0.00832522,0.009686577,-0.0358,-0.1284,-0.0664,0.5458,-9.785999,-0.3258,std
0.0050614546,-0.0045029493,0.009180432,-0.0245,-0.1382,-0.057099998,0.54429996,-9.786099,-0.3252,std
0.00572468,0.0004712389,0.007976155,-0.022799999,-0.1184,-0.0674,0.5426,-9.7862,-0.32479998,std
0.007696902,0.0007330383,0.0077841682,-0.031,-0.1281,-0.0779,0.541,-9.7863,-0.3241,std
0.006632251,-0.0004886922,0.005846853,-0.0389,-0.12799999,-0.0887,0.539,-9.7864,-0.3231,std
0.0068242373,-0.00038397242,0.0060562924,-0.0368,-0.1278,-0.089899994,0.537,-9.7866,-0.32189998,std
0.008464847,-0.0027052604,0.0068416907,-0.0347,-0.1277,-0.081,0.5349,-9.786699,-0.32099998,std
0.008011062,-0.0056374134,0.0072431164,-0.0425,-0.117699996,-0.081999995,0.53279996,-9.7869,-0.32,std
0.0074700094,-0.008866273,0.006457718,-0.0308,-0.117599994,-0.082899995,0.5309,-9.787,-0.3191,std
0.008290314,-0.010192723,0.005986479,-0.029199999,-0.1273,-0.0643,0.5293,-9.7871,-0.318,std
0.012199852,-0.008028515,0.007278023,-0.047199998,-0.12719999,-0.0854,0.5277,-9.7873,-0.3166,std
0.013072516,-0.005270894,0.007941248,-0.0656,-0.1369,-0.0867,0.5265,-9.787399,-0.3153,std
0.011571533,-0.0012042772,0.0076270886,-0.0642,-0.1269,-0.0685,0.5251,-9.787499,-0.3139,std
0.010524335,0.0008726646,0.0058119465,-0.053099997,-0.1268,-0.0797,0.5238,-9.7876,-0.3125,std
0.012007865,0.002443461,0.0046774824,-0.0319,-0.1267,-0.081099994,0.5223,-9.7877,-0.311,std
0.011972958,0.0022863813,0.00726057,-0.0404,-0.1266,-0.0726,0.5209,-9.7879,-0.30969998,std
0.013439035,0.0013264503,0.009791297,-0.029199999,-0.1265,-0.074099995,0.5196,-9.788,-0.3083,std
0.014084807,-0.00026179937,0.008342674,-0.0277,-0.1557,-0.096,0.518,-9.788099,-0.306,std
0.015236724,-0.005846853,0.0069987704,-0.0162,-0.1261,-0.0984,0.5164,-9.7883,-0.30359998,std
0.015271631,-0.0075398223,0.00842994,-0.014599999,-0.1358,-0.081,0.5148,-9.7884,-0.3014,std
0.01616175,-0.010105456,0.009581857,-0.0429,-0.1259,-0.083,0.5136,-9.7886,-0.2994,std
0.015987216,-0.011798426,0.011798426,-0.081099994,-0.115899995,-0.0559,0.5126,-9.7887,-0.297,std
0.015271631,-0.016894788,0.014276793,-0.0796,-0.1158,-0.058199998,0.5111,-9.788799,-0.2947,std
0.014398966,-0.020123646,0.012793263,-0.0482,-0.1352,-0.0412,0.50909996,-9.789,-0.29209998,std
0.016074482,-0.020594886,0.012531464,-0.0661,-0.1252,-0.0341,0.5074,-9.7892,-0.28939998,std
0.015707964,-0.0146084055,0.013177236,-0.0843,-0.14469999,-0.056599997,0.50589997,-9.7893,-0.2866,std
0.012304571,-0.010960667,0.011047934,-0.082499996,-0.1445,-0.0398,0.5042,-9.789499,-0.2837,std
0.0146084055,-0.013351769,0.010786135,-0.0705,-0.124699995,-0.0725,0.502,-9.7897,-0.28039998,std
0.014660765,-0.013962634,0.010541788,-0.038799997,-0.0951,-0.0654,0.4998,-9.7899,-0.2778,std
0.013892821,-0.01155408,0.011205014,-0.0359,-0.1047,-0.0583,0.49679998,-9.7901,-0.275,std
0.013735741,-0.010960667,0.010838495,-0.042999998,-0.1339,-0.0609,0.49409997,-9.7904,-0.2724,std
0.013456488,-0.010454522,0.010960667,-0.0403,-0.114099994,-0.0736,0.4915,-9.7906,-0.2696,std
0.013020156,-0.012548917,0.0108908545,-0.018,-0.1236,-0.1059,0.4887,-9.7908,-0.2667,std
0.012444197,-0.010873402,0.0085870195,-0.0255,-0.113699995,-0.0787,0.48639998,-9.790999,-0.2645,std
0.010070549,-0.0108908545,0.006789331,-0.033099998,-0.12329999,-0.071499996,0.4842,-9.7911,-0.2618,std
0.011292281,-0.009302605,0.008150687,-0.050499998,-0.1231,-0.0448,0.48189998,-9.7913,-0.2591,std
0.011693706,-0.009180432,0.00842994,-0.0383,-0.122899994,-0.0473,0.47959998,-9.7915,-0.2566,std
0.012653637,-0.011205014,0.009285152,-0.0361,-0.1227,-0.059699997,0.47739998,-9.791699,-0.2541,std
0.012217305,-0.009773844,0.008936086,-0.0436,-0.1226,-0.062099997,0.47509998,-9.7919,-0.2516,std
0.012426744,-0.0052185343,0.009686577,-0.0413,-0.1126,-0.0645,0.4728,-9.792,-0.24919999,std
0.010751228,-0.0051487214,0.009564404,-0.0493,-0.1223,-0.057,0.471,-9.7922,-0.247,std
0.011711159,-0.0056897732,0.009930924,-0.047799997,-0.122099996,-0.058799997,0.46949998,-9.7923,-0.24509999,std
0.010960667,-0.0075223693,0.010489428,-0.0656,-0.121999994,-0.0316,0.4676,-9.792399,-0.2429,std
0.009581857,-0.009110618,0.00996583,-0.0444,-0.1317,-0.053099997,0.466,-9.7926,-0.241,std
0.009250245,-0.012950343,0.009704031,-0.0424,-0.1217,-0.0652,0.46409997,-9.7927,-0.23869999,std
0.010279989,-0.017976891,0.010559242,-0.0307,-0.121599995,-0.067499995,0.4622,-9.7928,-0.2364,std
0.010088003,-0.015673056,0.009145525,-0.0385,-0.1214,-0.06,0.46019998,-9.793,-0.2341,std
0.010768682,-0.0073303827,0.010332349,-0.056199998,-0.1213,-0.062,0.45819998,-9.793099,-0.2321,std
0.009302605,-0.0018849556,0.010751228,-0.0541,-0.12109999,-0.054399997,0.45619997,-9.7933,-0.22989999,std
0.011030481,0.00057595863,0.009669124,-0.071499996,-0.1112,-0.0858,0.454,-9.7934,-0.2279,std
0.011135201,0.00027925268,0.007749262,-0.0499,-0.111099996,-0.0777,0.45189998,-9.7936,-0.2262,std
0.0095120445,0.00013962634,0.0067718774,-0.047799997,-0.120699994,-0.059699997,0.4499,-9.7937,-0.22459999,std
0.007836528,0.00085521134,0.007819075,-0.0162,-0.14999999,-0.0517,0.4477,-9.793799,-0.2228,std
0.007958702,-0.0019198621,0.0069987704,-0.0044,-0.1303,-0.0534,0.4457,-9.794,-0.221,std
0.007976155,-0.0056723203,0.0062308256,-0.0219,-0.1301,-0.0554,0.4436,-9.7941,-0.2191,std
0.00715585,-0.012322024,0.006126106,-0.0295,-0.1104,-0.047399998,0.4414,-9.7942,-0.2173,std
0.0082205,-0.010489428,0.00424115,-0.037299998,-0.12979999,-0.078899994,0.4394,-9.7944,-0.21519999,std
0.0076619955,-0.006632251,0.0027401668,-0.065,-0.11009999,-0.081199996,0.4377,-9.794499,-0.2129,std
0.0067718774,-0.0034208454,0.0029496064,-0.0637,-0.11,-0.0632,0.4364,-9.7946,-0.2113,std
0.010157816,-0.0026529005,0.0043982295,-0.0523,-0.1295,-0.074499995,0.4348,-9.7947,-0.20979999,std
0.008499754,-0.0027576203,0.0046251225,-0.0705,-0.109799996,-0.0661,0.4333,-9.7948,-0.2084,std
0.007871435,-0.003874631,0.0026005406,-0.039699998,-0.1293,-0.0578,0.43199998,-9.7949,-0.2069,std
0.005550147,-0.0024958209,0.0027401668,-0.0285,-0.119399995,-0.0689,0.4305,-9.795,-0.2056,std
0.0055850535,-0.004642576,0.002094395,-0.0178,-0.119399995,-0.060399998,0.4297,-9.7951,-0.2043,std
0.0076619955,-0.0008901179,0.0014137167,-0.0466,-0.1291,-0.0716,0.429,-9.7951,-0.20289999,std
0.006632251,-0.0002443461,0.00085521134,-0.0655,-0.1193,-0.072799996,0.4283,-9.795199,-0.2017,std
0.004118977,0.00010471976,-0.0010471975,-0.0547,-0.1192,-0.064899996,0.4274,-9.795199,-0.1998,std
0.0030543262,0.0010297443,-0.0012042772,-0.043899998,-0.12889999,-0.0665,0.42639998,-9.7953,-0.1982,std
0.0015184365,0.00026179937,-0.00012217305,-0.053099997,-0.1092,-0.0581,0.4258,-9.7954,-0.1968,std
0.0010821042,0.0016057029,0.0006283185,-0.0427,-0.1484,-0.0493,0.4252,-9.7954,-0.19579999,std
0.0010995574,0.00012217305,0.00036651915,-0.022599999,-0.13859999,-0.0797,0.42459998,-9.7955,-0.19479999,std
0.0030019663,-0.0036651914,-0.00061086525,-0.012399999,-0.0993,-0.0713,0.4243,-9.7955,-0.1934,std
0.004310963,-0.0047472958,-0.00085521134,-0.031799998,-0.1091,-0.0725,0.424,-9.7955,-0.19219999,std
0.004223697,-0.0036128315,0.0015358897,-0.0515,-0.1091,-0.0831,0.4242,-9.7956,-0.19139999,std
0.003700098,-0.002094395,0.0027750735,-0.0809,-0.13849999,-0.073699996,0.4242,-9.7956,-0.191,std
0.0026005406,-0.0030892328,0.0029146997,-0.061199997,-0.1287,-0.044499997,0.424,-9.7956,-0.1908,std
0.0034906585,-0.005375614,0.0021118484,-0.051099997,-0.1286,-0.024999999,0.4238,-9.7956,-0.1906,std
0.005427974,-0.003926991,0.0015707964,-0.050899997,-0.1188,-0.035,0.4235,-9.7956,-0.19049999,std
0.004694936,-0.00075049157,0.0018675023,-0.050899997,-0.14819999,-0.045199998,0.4235,-9.7956,-0.1901,std
0.0038920841,0.0011519173,5.235988e-05,-0.070599996,-0.14819999,-0.0361,0.4236,-9.7956,-0.1893,std
0.0027052604,-5.235988e-05,0.00076794485,-0.040799998,-0.1286,-0.056399997,0.42319998,-9.7956,-0.18859999,std
0.0034557518,-0.00055850536,0.0025481808,-0.030299999,-0.0991,-0.0473,0.4226,-9.7957,-0.188,std
0.0015707964,-0.0020071287,0.0050440016,-0.0198,-0.1285,-0.0673,0.4219,-9.7957,-0.1876,std
0.0027925267,-0.0027925267,0.004939282,-0.019299999,-0.1187,-0.0678,0.42139998,-9.7958,-0.18699999,std
0.0029670596,-0.0049218284,0.0027576203,-0.009099999,-0.118599996,-0.0786,0.421,-9.7958,-0.18609999,std
0.0027227136,-0.006265732,0.00013962634,-0.028299998,-0.1284,-0.0696,0.42049998,-9.7958,-0.18519999,std
0.0019896755,-0.003874631,-0.00015707963,-0.0674,-0.1284,-0.0703,0.42049998,-9.7958,-0.1845,std
-0.0066671576,0.005323254,-0.0048520155,-0.0866,-0.1284,-0.0707,0.4201,-9.795899,-0.18419999,std
-0.0067718774,0.006440265,-0.003159046,-0.056599997,-0.1381,-0.081099994,0.4195,-9.795899,-0.1836,std
-0.006073746,0.008656833,-0.003926991,-0.026099999,-0.118499994,-0.061699998,0.4184,-9.796,-0.18339999,std
-0.005078908,0.0085870195,-0.0019198621,-0.015299999,-0.1086,-0.062099997,0.4173,-9.796,-0.1829,std
-0.0062831854,0.0063006384,-0.0028448866,-0.014599999,-0.1086,-0.0822,0.41669998,-9.796,-0.18249999,std
-0.0061959187,0.0054628807,-0.0028797933,-0.0341,-0.1184,-0.063,0.4166,-9.7961,-0.182,std
-0.0062831854,0.0045029493,-0.0045204028,-0.0242,-0.1478,-0.0535,0.4165,-9.7961,-0.1818,std
-0.0061959187,0.004066617,-0.0051661744,-0.015299999,-0.1184,-0.0423,0.4174,-9.796,-0.1831,std
-0.005969026,0.0044854963,-0.0038571777,-0.0257,-0.1283,-0.0508,0.4179,-9.796,-0.1845,std
-0.0066147977,0.005078908,-0.0035255651,-0.0558,-0.1479,-0.049599998,0.41869998,-9.795899,-0.1857,std
-0.006440265,0.0045204028,-0.004782202,-0.056199998,-0.1284,-0.0681,0.419,-9.795899,-0.18679999,std
-0.007452556,0.004276057,-0.0045204028,-0.0468,-0.118599996,-0.0669,0.4195,-9.7958,-0.18789999,std
-0.0076096356,0.0056374134,-0.0052185343,-0.0473,-0.108799994,-0.0755,0.42,-9.7958,-0.1892,std
-0.006981317,0.0063355453,-0.0048171086,-0.0677,-0.108899996,-0.0546,0.4208,-9.7957,-0.19049999,std
-0.0070162234,0.0047472958,-0.0060039326,-0.0589,-0.1384,-0.053299997,0.4217,-9.7956,-0.1917,std
-0.007452556,0.0022863813,-0.005427974,-0.049799997,-0.1286,-0.061899997,0.4224,-9.7956,-0.1929,std
-0.0077667153,0.0035255651,-0.0057595866,-0.0504,-0.1287,-0.0508,0.42299998,-9.7955,-0.1943,std
-0.0075398223,0.004415683,-0.0052359877,-0.0414,-0.12879999,-0.059299998,0.42389998,-9.7955,-0.19559999,std
-0.0069638635,0.00572468,-0.0047298423,-0.0423,-0.12879999,-0.0578,0.4247,-9.7954,-0.1971,std
-0.00816814,0.006876597,-0.0058817593,-0.0628,-0.1191,-0.0661,0.42569998,-9.7953,-0.1986,std
-0.008464847,0.0074874624,-0.006213372,-0.034399997,-0.1094,-0.0645,0.4267,-9.7953,-0.20019999,std
-0.008464847,0.0068940506,-0.00572468,-0.055,-0.129,-0.0534,0.42769998,-9.795199,-0.2014,std
-0.009616764,0.006440265,-0.005026548,-0.065799996,-0.1291,-0.042099997,0.42859998,-9.7951,-0.203,std
-0.008255407,0.0068416907,-0.006405358,-0.057,-0.1488,-0.060099997,0.4297,-9.795,-0.20449999,std
-0.008185594,0.0062831854,-0.0069464105,-0.0482,-0.1195,-0.0488,0.43069997,-9.795,-0.2061,std
-0.009320058,0.0067195175,-0.0053407075,-0.0394,-0.1195,-0.057099998,0.43159997,-9.7949,-0.2076,std
-0.0082205,0.006736971,-0.0051487214,-0.059899997,-0.1392,-0.036,0.4326,-9.7948,-0.2091,std
-0.008098328,0.010960667,-0.0056199604,-0.0709,-0.1295,-0.0539,0.43379998,-9.7947,-0.21079999,std
-0.010594148,0.017488198,-0.0076619955,-0.0622,-0.119799994,-0.052199997,0.4348,-9.7947,-0.21239999,std
-0.010157816,0.017854718,-0.008412487,-0.0435,-0.13949999,-0.060099997,0.4357,-9.7946,-0.2144,std
-0.009128072,0.017470745,-0.0075398223,-0.0447,-0.119899996,-0.0585,0.4369,-9.794499,-0.21599999,std
-0.009738937,0.016563175,-0.005794493,-0.046,-0.12979999,-0.047,0.4382,-9.7944,-0.21759999,std
-0.007906342,0.019530235,-0.0058817593,-0.047,-0.1495,-0.055,0.43919998,-9.7943,-0.21949999,std
-0.008098328,0.016004669,-0.0071383966,-0.0381,-0.13,-0.0534,0.4402,-9.7942,-0.22109999,std
-0.005899213,0.014189526,-0.008133234,-0.0392,-0.120299995,-0.0714,0.44129997,-9.7941,-0.2227,std
-0.006492625,0.013439035,-0.0073827426,-0.0407,-0.1204,-0.049799997,0.4427,-9.794,-0.22469999,std
-0.006440265,0.012705997,-0.005794493,-0.091299996,-0.1303,-0.038,0.44439998,-9.7939,-0.22659999,std
-0.0068940506,0.011780973,-0.004660029,-0.112399995,-0.1206,-0.0167,0.4459,-9.793799,-0.22839999,std
-0.0074351025,0.011030481,-0.0055326936,-0.1037,-0.1109,-0.0149,0.447,-9.7937,-0.2302,std
-0.0072431164,0.00837758,-0.0058643064,-0.0657,-0.14039999,-0.0036,0.4481,-9.7936,-0.23169999,std
-0.0058643064,0.009826204,-0.005305801,-0.077,-0.1405,-0.021499999,0.4497,-9.7935,-0.23339999,std
-0.00715585,0.010786135,-0.006387905,-0.1078,-0.1406,-0.020499999,0.4511,-9.7934,-0.23439999,std
-0.0068242373,0.009372418,-0.00715585,-0.0994,-0.1407,-0.029099999,0.4525,-9.7933,-0.2356,std
-0.006038839,0.007504916,-0.0059515727,-0.0711,-0.121199995,-0.0475,0.4536,-9.7932,-0.2368,std
-0.006736971,0.0058293995,-0.0046251225,-0.0622,-0.0918,-0.0265,0.4545,-9.7932,-0.2382,std
-0.0063006384,0.0036826448,-0.0049916417,-0.0536,-0.1312,-0.0150999995,0.4556,-9.793099,-0.23979999,std
-0.0058643064,0.0005061455,-0.0048694685,-0.0643,-0.1214,-0.043199997,0.45659998,-9.793,-0.241,std
-0.005305801,-0.0013962634,-0.0052883476,-0.065299995,-0.1215,-0.0519,0.4576,-9.7929,-0.24219999,std
-0.0051661744,-0.0014660766,-0.0050090947,-0.0862,-0.1314,-0.0309,0.4588,-9.7928,-0.2436,std
-0.006928957,0.0013439035,-0.006161012,-0.107099995,-0.13149999,-0.0394,0.46019998,-9.7927,-0.24489999,std
-0.0063529983,0.00413643,-0.0061959187,-0.118,-0.13159999,-0.0185,0.4613,-9.7927,-0.2461,std
-0.008203047,0.008604473,-0.0050090947,-0.089499995,-0.1317,-0.017199999,0.4621,-9.7926,-0.24749999,std
-0.006789331,0.008464847,-0.005305801,-0.0708,-0.1219,-0.015899999,0.463,-9.7925,-0.2488,std
-0.00832522,0.009808751,-0.0047472958,-0.0814,-0.1318,-0.0245,0.4639,-9.792399,-0.25,std
-0.0061959187,0.0095294975,-0.0051487214,-0.062699996,-0.122099996,-0.0233,0.4648,-9.792399,-0.2511,std
-0.0070860367,0.0069115036,-0.005253441,-0.0637,-0.132,-0.0025,0.4658,-9.7923,-0.25239998,std
-0.006806784,0.0054628807,-0.005323254,-0.074499995,-0.1418,-0.0208,0.46679997,-9.7922,-0.2537,std
-0.0065973448,0.006265732,-0.0055326936,-0.0757,-0.1419,-0.0195,0.46789998,-9.7921,-0.255,std
-0.006981317,0.0048520155,-0.0057072267,-0.0668,-0.12239999,-0.037499998,0.4689,-9.792,-0.2566,std
-0.006213372,0.0038048178,-0.0048171086,-0.077599995,-0.122499995,-0.0067999996,0.46989998,-9.7919,-0.2579,std
-0.0063355453,0.005131268,-0.0044505894,-0.0981,-0.1226,-0.0149,0.4707,-9.7919,-0.2595,std
-0.005969026,0.0044505894,-0.0052185343,-0.0893,-0.112799995,-0.033299997,0.47169998,-9.7918,-0.2608,std
-0.005550147,0.0045204028,-0.0035081117,-0.099999994,-0.1325,-0.0221,0.4727,-9.791699,-0.2622,std
-0.006021386,0.0046774824,-0.00413643,-0.100999996,-0.1326,-0.011,0.4737,-9.7916,-0.2635,std
-0.005270894,0.0031415927,-0.0051487214,-0.1118,-0.1327,-0.0095999995,0.47469997,-9.7915,-0.2649,std
-0.006736971,0.0041015237,-0.0058817593,-0.103099994,-0.1426,0.0015,0.4757,-9.7914,-0.2663,std
-0.00418879,0.005969026,-0.004537856,-0.0941,-0.1329,0.0028,0.4766,-9.7914,-0.26749998,std
-0.0040142573,0.0062831854,-0.00424115,-0.085099995,-0.133,-0.0155,0.47739998,-9.7913,-0.2688,std
-0.0056199604,0.0067195175,-0.0049741883,-0.076299995,-0.1232,-0.0143,0.4784,-9.7912,-0.26999998,std
-0.0073129297,0.0033335788,-0.0052883476,-0.0867,-0.1331,-0.0229,0.479,-9.7911,-0.2712,std
-0.0062308256,0.004276057,-0.0044331364,-0.0875,-0.1136,0.0077,0.4798,-9.7911,-0.27249998,std
-0.0055676005,0.001850049,-0.005026548,-0.0982,-0.123399995,-0.0206,0.4806,-9.790999,-0.2735,std
-0.007504916,-0.0008901179,-0.0063006384,-0.099199995,-0.13329999,-0.0094,0.48169997,-9.790899,-0.2749,std
-0.0074176495,-0.0018849556,-0.005794493,-0.100099996,-0.1236,0.0011,0.4825,-9.7908,-0.2757,std
-0.0076619955,-0.000715585,-0.0049218284,-0.110599995,-0.103999995,0.0018999999,0.4833,-9.7908,-0.2765,std
-0.0066147977,0.0017976891,-0.0034732053,-0.1116,-0.1433,0.012999999,0.4843,-9.7907,-0.2778,std
-0.0061784657,0.005358161,-0.0052185343,-0.102699995,-0.1336,-0.0052,0.4852,-9.7906,-0.2791,std
-0.0070685833,0.008953539,-0.0072954763,-0.10349999,-0.114099994,0.0058,0.48589998,-9.7905,-0.28039998,std
-0.009354965,0.009145525,-0.00837758,-0.104399994,-0.1338,0.0069,0.4868,-9.7905,-0.28149998,std
-0.009197885,0.009232792,-0.006754424,-0.1055,-0.1339,0.018299999,0.48799998,-9.7904,-0.28309998,std
-0.008866273,0.00986111,-0.005305801,-0.0968,-0.14379999,0.0004,0.48909998,-9.790299,-0.2848,std
-0.008237954,0.011117747,-0.004468043,-0.087799996,-0.14389999,0.021499999,0.4899,-9.790199,-0.2862,std
-0.0065973448,0.007836528,-0.0055152406,-0.068799995,-0.1047,0.0032,0.49049997,-9.7901,-0.28759998,std
-0.0067718774,0.0043807765,-0.0063704518,-0.0795,-0.095,-0.0150999995,0.49139997,-9.79,-0.2888,std
-0.0066497047,0.004363323,-0.004939282,-0.0907,-0.1245,-0.0235,0.4928,-9.7899,-0.2902,std
-0.007853982,0.004607669,-0.0034732053,-0.1217,-0.1443,-0.0019999999,0.4944,-9.7898,-0.29209998,std
-0.008779006,0.006544985,-0.0049916417,-0.1328,-0.1346,0.029099999,0.4956,-9.7897,-0.29389998,std
-0.008639379,0.0068416907,-0.007225663,-0.124,-0.1347,0.0504,0.4966,-9.789599,-0.2956,std
-0.0090582585,0.0058293995,-0.0058643064,-0.114999995,-0.1348,0.0422,0.49749997,-9.789499,-0.2972,std
-0.008098328,0.008464847,-0.005323254,-0.1356,-0.1349,0.0337,0.4985,-9.7894,-0.2985,std
-0.009320058,0.010698868,-0.005270894,-0.1369,-0.13499999,0.0156,0.4998,-9.7893,-0.29999998,std
-0.010105456,0.010157816,-0.0074351025,-0.0985,-0.13509999,0.0069999998,0.5006,-9.7892,-0.3012,std
-0.011397,0.009669124,-0.007592182,-0.0893,-0.12529999,0.018299999,0.50119996,-9.7891,-0.30269998,std
-0.011397,0.0082205,-0.0062308256,-0.099999994,-0.1156,0.0299,0.5021,-9.789,-0.30449998,std
-0.011257374,0.008255407,-0.006091199,-0.1013,-0.1452,0.012,0.50339997,-9.788899,-0.3062,std
-0.012095132,0.008290314,-0.0054803337,-0.121999994,-0.1257,0.0138,0.5045,-9.788799,-0.308,std
-0.011030481,0.0063355453,-0.0055326936,-0.1034,-0.1258,0.0154,0.50549996,-9.7887,-0.3096,std
-0.010838495,0.0050090947,-0.005305801,-0.104399994,-0.1259,0.026999999,0.5064,-9.7886,-0.3114,std
-0.010925761,0.00572468,-0.0067020645,-0.1156,-0.14559999,0.0093,0.5079,-9.7884,-0.31329998,std
-0.011327187,0.008901179,-0.008011062,-0.1366,-0.13599999,0.0213,0.5093,-9.7883,-0.3155,std
-0.01144936,0.013526302,-0.0069115036,-0.12799999,-0.1165,0.0235,0.5104,-9.788099,-0.3177,std
-0.012479104,0.014992379,-0.0069464105,-0.1389,-0.1362,0.0552,0.51159996,-9.788,-0.3199,std
-0.011466813,0.01452114,-0.0046251225,-0.1301,-0.11669999,0.0379,0.5126,-9.7879,-0.3223,std
-0.013491395,0.0132295955,-0.006405358,-0.1311,-0.1169,0.0401,0.5136,-9.7878,-0.3245,std
-0.014486233,0.014922565,-0.007574729,-0.1125,-0.1268,0.0324,0.5146,-9.7876,-0.3266,std
-0.01616175,0.01446878,-0.008028515,-0.1139,-0.13669999,0.0446,0.5159,-9.787499,-0.329,std
-0.015201817,0.015673056,-0.0077841682,-0.125,-0.1369,0.0466,0.5173,-9.787399,-0.331,std
-0.016580628,0.016475908,-0.008901179,-0.12629999,-0.12719999,0.0389,0.5186,-9.7872,-0.3331,std
-0.016388642,0.018867008,-0.008953539,-0.1277,-0.117599994,0.0413,0.51989996,-9.7871,-0.3355,std
-0.016004669,0.021188296,-0.0071383966,-0.1188,-0.1373,0.0337,0.5208,-9.7869,-0.33769998,std
-0.016563175,0.022026055,-0.008499754,-0.12,-0.1375,0.046,0.5221,-9.786799,-0.34019998,std
-0.015271631,0.021554817,-0.00832522,-0.1313,-0.118,0.039,0.52349997,-9.7866,-0.343,std
-0.0150796445,0.020821778,-0.007278023,-0.1328,-0.1476,0.042099997,0.5251,-9.7864,-0.3461,std
-0.014189526,0.019477874,-0.009232792,-0.1245,-0.1282,0.044999998,0.5266,-9.7862,-0.34899998,std
-0.013631022,0.01792453,-0.008552114,-0.116399996,-0.1284,0.0677,0.5283,-9.785999,-0.35209998,std
-0.013456488,0.018954275,-0.007278023,-0.1282,-0.1188,0.041699998,0.53029996,-9.7858,-0.35549998,std
-0.013404129,0.017697638,-0.0072954763,-0.1295,-0.13859999,0.0345,0.5316,-9.7856,-0.35819998,std
-0.011135201,0.015341444,-0.0063704518,-0.1312,-0.129,0.0278,0.5333,-9.785399,-0.3612,std
-0.010175269,0.017208947,-0.0070685833,-0.1427,-0.1488,0.0503,0.5349,-9.7852,-0.36409998,std
-0.011100294,0.013980087,-0.0071383966,-0.1343,-0.1196,0.043199997,0.53639996,-9.785,-0.3669,std
-0.008726646,0.010384709,-0.005375614,-0.1559,-0.1296,0.046099998,0.5384,-9.7848,-0.3698,std
-0.009651671,0.009250245,-0.005410521,-0.1378,-0.1396,0.0288,0.5399,-9.784699,-0.3721,std
-0.009878564,0.0060562924,-0.0058817593,-0.1589,-0.1299,0.0313,0.5414,-9.7845,-0.37449998,std
-0.0084823,0.0040142573,-0.0052185343,-0.1603,-0.1399,0.0436,0.5428,-9.7843,-0.377,std
-0.008831366,0.005183628,-0.005654867,-0.15179999,-0.1205,0.055499997,0.54399997,-9.7842,-0.3791,std
-0.0075572757,0.0047996556,-0.0047472958,-0.1533,-0.1304,0.0477,0.5456,-9.783999,-0.3812,std
-0.0069115036,0.004223697,-0.0054803337,-0.1545,-0.16,0.049599998,0.54679996,-9.7838,-0.3831,std
-0.010122909,0.005899213,-0.007819075,-0.1555,-0.1209,0.0513,0.5478,-9.7837,-0.3847,std
-0.011903145,0.0055152406,-0.008709193,-0.1467,-0.1308,0.072799996,0.5488,-9.7836,-0.3866,std
-0.011641346,0.007888888,-0.00991347,-0.1576,-0.1408,0.0747,0.5499,-9.7835,-0.3885,std
-0.012234758,0.009372418,-0.008674286,-0.1487,-0.1507,0.066599995,0.55079997,-9.783299,-0.3902,std
-0.011519173,0.007592182,-0.007225663,-0.15959999,-0.141,0.0389,0.5518,-9.783199,-0.3919,std
-0.010611602,0.0050090947,-0.0062482785,-0.1506,-0.1215,0.0403,0.5527,-9.7831,-0.39339998,std
-0.009180432,0.0047647487,-0.007976155,-0.1319,-0.121599995,0.0319,0.5536,-9.783,-0.39479998,std
-0.010681415,0.0025481808,-0.0055326936,-0.1432,-0.1218,0.0339,0.55509996,-9.7828,-0.3967,std
-0.0090233525,0.0041015237,-0.0052185343,-0.1644,-0.1024,0.0558,0.5567,-9.782599,-0.39909998,std
-0.00842994,0.004956735,-0.0060562924,-0.1761,-0.132,0.048299998,0.5586,-9.7824,-0.40129998,std
-0.009930924,0.006684611,-0.0066497047,-0.1581,-0.1322,0.060399998,0.5602,-9.7823,-0.4037,std
-0.00816814,0.006143559,-0.005375614,-0.1595,-0.14209999,0.092099994,0.5615,-9.7821,-0.4059,std
-0.0069987704,0.0073129297,-0.005183628,-0.16059999,-0.1325,0.0843,0.5627,-9.781899,-0.408,std
-0.0073652896,0.006544985,-0.0051138145,-0.16219999,-0.1425,0.0863,0.5643,-9.781799,-0.40989998,std
-0.0085870195,0.007574729,-0.005427974,-0.16309999,-0.1426,0.058799997,0.5652,-9.7816,-0.4118,std
-0.007941248,0.008901179,-0.0061784657,-0.1346,-0.1231,0.089999996,0.5661,-9.7815,-0.4136,std
-0.008604473,0.009651671,-0.0060562924,-0.1357,-0.1134,0.0818,0.5672,-9.7814,-0.4152,std
-0.007592182,0.008098328,-0.0050090947,-0.1467,-0.13319999,0.0837,0.56839997,-9.781199,-0.4172,std
-0.00837758,0.00837758,-0.005270894,-0.1673,-0.13329999,0.0559,0.5693,-9.781099,-0.41869998,std
-0.00816814,0.007452556,-0.006510078,-0.1388,-0.1432,0.067,0.5703,-9.781,-0.4201,std
-0.009075712,0.005742133,-0.006318092,-0.1593,-0.1434,0.0783,0.5712,-9.7809,-0.4215,std
-0.00832522,0.0058817593,-0.007400196,-0.17009999,-0.1337,0.070099995,0.5722,-9.7807,-0.4231,std
-0.009581857,0.010192723,-0.006754424,-0.17119999,-0.1436,0.0422,0.5733,-9.7806,-0.42459998,std
-0.00010471976,0.0012217305,3.4906585e-05,-0.1725,-0.14379999,0.0341,0.5746,-9.780499,-0.42639998,std
-0.00036651915,0.0018675023,0.00019198621,-0.1635,-0.124299996,0.0747,0.5754,-9.780399,-0.42769998,std
0.0012042772,0.00082030473,0.00080285146,-0.1644,-0.1244,0.0861,0.57629997,-9.7802,-0.42929998,std
0.0008726646,0.0022340214,0.0009250245,-0.17539999,-0.1441,0.0778,0.5775,-9.7801,-0.4308,std
0.0022165682,0.0010995574,-0.00038397242,-0.15699999,-0.1345,0.0894,0.5787,-9.7799,-0.4326,std
0.0019198621,-0.0010821042,-0.0009424778,-0.1585,-0.1346,0.100899994,0.58019996,-9.779799,-0.4344,std
0.001256637,-0.00034906584,0.00020943952,-0.1792,-0.1348,0.0927,0.58129996,-9.7796,-0.436,std
0.0024260078,-0.0004712389,0.00057595863,-0.169,-0.15439999,0.0925,0.5808,-9.779699,-0.4357,std
0.0026005406,0.0002443461,0.0010646508,-0.16849999,-0.1445,0.0629,0.5803,-9.779699,-0.43559998,std
0.003036873,0.00010471976,-0.00052359875,-0.1581,-0.1445,0.072299995,0.5797,-9.779799,-0.4351,std
0.0035953782,-0.00143117,-0.00020943952,-0.1574,-0.1346,0.0817,0.5791,-9.779799,-0.43469998,std
0.003630285,-0.0026703537,0.00019198621,-0.1766,-0.1444,0.0712,0.5787,-9.7799,-0.434,std
0.002513274,-0.004276057,6.981317e-05,-0.1762,-0.1345,0.070599996,0.5783,-9.7799,-0.4335,std
0.003926991,-0.0064228117,-0.00040142573,-0.17559999,-0.12459999,0.070099995,0.57769996,-9.78,-0.433,std
0.0036128315,-0.006789331,-0.00012217305,-0.1749,-0.12459999,0.098799996,0.57699996,-9.7801,-0.43219998,std
0.0053930674,-0.008621926,0.0006981317,-0.1644,-0.1245,0.0784,0.57629997,-9.7801,-0.4314,std
0.003944444,-0.0068940506,0.0006457718,-0.16399999,-0.13419999,0.087299995,0.57589996,-9.7802,-0.4305,std
0.0056199604,-0.0058293995,0.00080285146,-0.1697,-0.1339,0.0654,0.5718,-9.780499,-0.42819998,std
0.0050963615,-0.0069638635,-0.00076794485,-0.1695,-0.1436,0.0843,0.57159996,-9.7806,-0.4276,std
0.0031415927,-0.0075398223,0.00036651915,-0.16929999,-0.114199996,0.074099995,0.5714,-9.7806,-0.4272,std
0.0037175512,-0.006562438,-1.7453292e-05,-0.17899999,-0.124,0.0832,0.57129997,-9.7807,-0.42639998,std
0.0026703537,-0.005497787,-0.0016406095,-0.169,-0.1435,0.0827,0.5711,-9.7807,-0.42589998,std
0.0027576203,-0.006073746,6.981317e-05,-0.1687,-0.1435,0.0818,0.5708,-9.7807,-0.42499998,std
0.004049164,-0.0039618975,0.00036651915,-0.16839999,-0.1042,0.081099994,0.5704,-9.7808,-0.4244,std
0.0037350047,-0.0029321532,0.00045378561,-0.168,-0.1532,0.0703,0.5701,-9.7809,-0.42339998,std
0.0030019663,-0.0027750735,0.00027925268,-0.1582,-0.1237,0.0792,0.5701,-9.7809,-0.4224,std
0.0050090947,-0.0021991148,-0.00055850536,-0.1481,-0.1237,0.0787,0.56979996,-9.7809,-0.4219,std
0.0035081117,-0.0029496064,0.0006981317,-0.1577,-0.1433,0.078099996,0.5696,-9.781,-0.4213,std
0.0046774824,-0.0005061455,0.0006283185,-0.1677,-0.1531,0.0679,0.5697,-9.781,-0.4209,std
0.0025481808,0.0042586033,-0.00027925268,-0.1478,-0.1432,0.047799997,0.56949997,-9.781,-0.42049998,std
0.002391101,0.007853982,-0.000715585,-0.1378,-0.1236,0.0765,0.5693,-9.781099,-0.41979998,std
0.004607669,0.006562438,0.0008726646,-0.14729999,-0.1235,0.0661,0.569,-9.781099,-0.4191,std
0.0045727626,0.0052010813,0.0018325957,-0.1373,-0.13329999,0.0753,0.5688,-9.781099,-0.4186,std
0.0058119465,0.0017104227,0.0027576203,-0.1372,-0.123399995,0.044999998,0.56869996,-9.781199,-0.4177,std
0.0069638635,-0.0017627826,0.0008901179,-0.1173,-0.14299999,0.054199997,0.56839997,-9.781199,-0.417,std
0.0073303827,-0.0037350047,0.00017453292,-0.1366,-0.1331,0.072799996,0.5681,-9.7813,-0.4161,std
0.0072431164,-0.004555309,0.0004712389,-0.166,-0.1331,0.0528,0.5681,-9.7813,-0.4156,std
0.007958702,-0.004642576,0.0008726646,-0.1857,-0.15269999,0.052199997,0.5681,-9.7813,-0.41509998,std
0.0063006384,-0.0041538836,0.0010646508,-0.1854,-0.14289999,0.0709,0.5679,-9.7814,-0.4141,std
0.00715585,-0.0028099802,0.0013439035,-0.1653,-0.15259999,0.07,0.5674,-9.7814,-0.4132,std
0.0073129297,-0.004660029,0.001972222,-0.1646,-0.1329,0.078499995,0.5667,-9.7815,-0.412,std
0.007871435,-0.0031764992,0.00143117,-0.1643,-0.1426,0.0774,0.5663,-9.7816,-0.41079998,std
0.005899213,-0.002984513,0.00012217305,-0.15429999,-0.1426,0.066199996,0.5661,-9.7817,-0.4094,std
0.0069638635,-0.003403392,-0.00083775807,-0.1638,-0.1327,0.055,0.5658,-9.7817,-0.40809998,std
0.006457718,-0.004939282,0.0007853982,-0.1634,-0.1326,0.073199995,0.56549996,-9.781799,-0.4066,std
0.0066497047,-0.0049916417,0.0014660766,-0.1434,-0.1227,0.072,0.5651,-9.781899,-0.40539998,std
0.0065275314,-0.0054454273,0.0021642083,-0.13319999,-0.13239999,0.051099997,0.5646,-9.782,-0.4041,std
0.005323254,-0.00832522,0.000715585,-0.1326,-0.122499995,0.069299996,0.56409997,-9.7821,-0.4028,std
0.006510078,-0.011187561,0.0010297443,-0.15169999,-0.122499995,0.058,0.5636,-9.7822,-0.40129998,std
0.007906342,-0.010716322,0.0014660766,-0.1417,-0.1322,0.037299998,0.5634,-9.7822,-0.40019998,std
0.0054628807,-0.006876597,0.0005410521,-0.17109999,-0.15179999,0.0654,0.5634,-9.7823,-0.3989,std
0.00720821,-0.0037175512,0.00026179937,-0.1609,-0.15169999,0.0545,0.56299996,-9.7823,-0.39769998,std
0.005026548,-0.0039618975,0.0011519173,-0.16049999,-0.132,0.063,0.5625,-9.7824,-0.3965,std
0.0063006384,-0.0035081117,0.0012217305,-0.1598,-0.122099996,0.0716,0.56189996,-9.782499,-0.3953,std
0.0040317103,-0.0017453292,0.0011693706,-0.1497,-0.122099996,0.0805,0.5615,-9.782599,-0.39429998,std
0.007033677,-0.0016231562,0.0012391837,-0.13939999,-0.1318,0.059699997,0.5611,-9.782599,-0.3931,std
0.005550147,0.0,0.0006457718,-0.1487,-0.1513,0.0682,0.5606,-9.7827,-0.3918,std
0.0059515727,0.0019024089,0.00027925268,-0.13859999,-0.1415,0.0574,0.5602,-9.7828,-0.3909,std
0.0034906585,0.0015707964,0.0006457718,-0.1383,-0.111999996,0.0757,0.56,-9.7828,-0.3895,std
0.003159046,0.0036826448,0.0009424778,-0.1379,-0.1217,0.065,0.5596,-9.7829,-0.3886,std
0.0030194195,-0.0014835298,0.00027925268,-0.1277,-0.121599995,0.0638,0.5591,-9.783,-0.3874,std
0.0045029493,-0.00057595863,0.0013439035,-0.12719999,-0.1314,0.0532,0.55869997,-9.783,-0.3866,std
0.0034906585,-6.981317e-05,0.0004363323,-0.117,-0.1313,0.061699998,0.55829996,-9.7831,-0.38529998,std
0.0029321532,-0.0006806784,0.00015707963,-0.1363,-0.1215,0.0508,0.55799997,-9.783199,-0.38419998,std
0.004468043,-0.00034906584,-0.0010995574,-0.1557,-0.1312,0.0398,0.5578,-9.783199,-0.3831,std
0.0036651914,-0.002024582,0.0007330383,-0.15519999,-0.1409,0.0488,0.5573,-9.783299,-0.3822,std
0.0042586033,-0.001012291,0.0009250245,-0.1549,-0.1311,0.077599995,0.55689996,-9.783299,-0.3816,std
0.004118977,-0.0012740904,0.00059341197,-0.16409999,-0.1408,0.076799996,0.5564,-9.7834,-0.38079998,std
0.0033335788,-0.0010646508,0.00080285146,-0.1539,-0.131,0.0563,0.556,-9.7835,-0.37989998,std
0.0036128315,-0.0022514747,0.0006283185,-0.1435,-0.12109999,0.026099999,0.5554,-9.7835,-0.3791,std
0.0027750735,-0.0027750735,0.0013962634,-0.1528,-0.1309,0.0547,0.5549,-9.7836,-0.37829998,std
0.002984513,-0.003159046,0.000715585,-0.1529,-0.121,0.0539,0.5549,-9.7836,-0.37759998,std
0.0045727626,-0.0039618975,0.0004363323,-0.1525,-0.1406,0.0532,0.5546,-9.7836,-0.3769,std
0.005794493,-0.0045204028,0.00034906584,-0.1424,-0.13069999,0.072,0.5542,-9.7837,-0.3761,std
0.0048171086,-0.00408407,0.00026179937,-0.1617,-0.1405,0.0517,0.5539,-9.7837,-0.3753,std
0.004956735,-0.0052185343,0.00066322513,-0.1512,-0.14039999,0.0508,0.55329996,-9.7838,-0.3744,std
0.0056897732,-0.006021386,0.00286234,-0.1706,-0.1502,0.0796,0.553,-9.783899,-0.37379998,std
0.00572468,-0.004066617,0.0013788101,-0.12109999,-0.1305,0.039899997,0.55259997,-9.783899,-0.3733,std
0.0030194195,-0.0030019663,0.0004886922,-0.120699994,-0.1011,0.0786,0.55219996,-9.783899,-0.3728,std
0.0035081117,-0.0012740904,-0.0006981317,-0.1302,-0.1304,0.0777,0.55189997,-9.783999,-0.3719,std
0.0029321532,-0.0035255651,0.00010471976,-0.1496,-0.14019999,0.0374,0.5516,-9.783999,-0.3708,std
0.0022165682,-0.0055152406,0.0020594886,-0.1493,-0.1303,0.0462,0.5514,-9.7841,-0.3698,std
0.0027925267,-0.005934119,0.0004712389,-0.1294,-0.1303,0.065,0.5511,-9.7841,-0.369,std
0.002024582,-0.007452556,0.00013962634,-0.1188,-0.1302,0.0444,0.5503,-9.7842,-0.368,std
0.0021991148,-0.008499754,-0.0009250245,-0.1183,-0.1301,0.053099997,0.5498,-9.7843,-0.3669,std
0.001134464,-0.0074874624,0.0002443461,-0.14739999,-0.1105,0.0525,0.5495,-9.7843,-0.3664,std
0.001972222,-0.005899213,0.0019198621,-0.1765,-0.1398,0.0517,0.5491,-9.7844,-0.3655,std
0.0011519173,-0.0036477381,0.0012740904,-0.1664,-0.13,0.060999997,0.5489,-9.7844,-0.36499998,std
0.0021293017,-0.0035430184,0.0002443461,-0.1462,-0.13,0.0802,0.54829997,-9.7845,-0.3646,std
0.003159046,-0.0052010813,0.0007853982,-0.12629999,-0.1201,0.089499995,0.548,-9.7845,-0.36409998,std
0.0030019663,-0.0025307273,0.0006457718,-0.14559999,-0.1397,0.0696,0.5477,-9.7845,-0.3638,std
0.002321288,-0.0017453292,0.00015707963,-0.14549999,-0.1201,0.069299996,0.5476,-9.7845,-0.3635,std
0.0019198621,-0.0028972465,-0.00052359875,-0.1256,-0.1201,0.059299998,0.5473,-9.784599,-0.3633,std
0.0015882496,-0.0024085543,1.7453292e-05,-0.1152,-0.12,0.059,0.5467,-9.784599,-0.363,std
0.0020071287,-0.0028972465,0.00085521134,-0.1148,-0.12979999,0.058799997,0.5463,-9.784599,-0.3628,std
0.0019024089,-0.0016755161,0.0006457718,-0.13409999,-0.12979999,0.058399998,0.546,-9.784699,-0.3624,std
0.0025481808,-0.0045204028,0.0017976891,-0.1338,-0.12969999,0.0677,0.5456,-9.784699,-0.3619,std
0.0032463125,-0.0070685833,-0.00026179937,-0.123399995,-0.119799994,0.0473,0.5451,-9.7848,-0.3611,std
0.0025481808,-0.004956735,0.000715585,-0.1425,-0.1296,0.0565,0.5446,-9.7848,-0.36049998,std
0.002391101,-0.0036128315,0.00055850536,-0.13239999,-0.13939999,0.065799996,0.54429996,-9.7849,-0.35999998,std
0.0021816615,-0.0018675023,0.00055850536,-0.1417,-0.1295,0.036,0.5438,-9.7849,-0.35959998,std
0.0016231562,-0.0006981317,0.0010995574,-0.14109999,-0.1295,0.0453,0.5432,-9.785,-0.35909998,std
0.0007330383,-0.00036651915,0.0018849556,-0.1308,-0.1294,0.0545,0.5426,-9.785,-0.3585,std
0.0019373155,0.0008726646,0.0004886922,-0.14,-0.1392,0.0541,0.5421,-9.7851,-0.3581,std
0.002443461,-0.00019198621,-0.00013962634,-0.13,-0.1391,0.0535,0.5419,-9.7851,-0.3575,std
0.0020594886,-0.0016406095,0.00027925268,-0.13939999,-0.1391,0.053,0.5415,-9.7851,-0.357,std
0.0029496064,-0.0004886922,0.0006283185,-0.1195,-0.1293,0.0722,0.5412,-9.7852,-0.3566,std
0.0024260078,-0.0004886922,0.00012217305,-0.13859999,-0.1488,0.0716,0.54069996,-9.7852,-0.35599998,std
0.00286234,-0.0022514747,0.00085521134,-0.1281,-0.119399995,0.041699998,0.53999996,-9.785299,-0.3556,std
0.002687807,-0.0025830872,0.00041887903,-0.1274,-0.1291,0.0317,0.53929996,-9.785299,-0.35529998,std
0.0025307273,-0.0039618975,0.00031415926,-0.1269,-0.1389,0.021399999,0.5388,-9.785399,-0.3548,std
0.002268928,-0.004642576,0.0004712389,-0.1363,-0.129,0.0404,0.5384,-9.785399,-0.3542,std
0.0022514747,-0.0045029493,0.00045378561,-0.1358,-0.1388,0.059499998,0.5379,-9.785399,-0.35369998,std
0.0025830872,-0.0047647487,-0.0010995574,-0.1353,-0.1191,0.0587,0.5373,-9.7855,-0.3529,std
0.002635447,-0.003752458,0.00038397242,-0.1348,-0.1387,0.0385,0.5369,-9.7855,-0.3523,std
0.003403392,-0.004223697,0.00036651915,-0.1343,-0.1484,0.0574,0.5363,-9.7856,-0.3516,std
0.0031241393,-0.0025481808,0.00057595863,-0.1337,-0.12879999,0.0567,0.5358,-9.7857,-0.3509,std
0.0042935098,-0.0013962634,-0.00015707963,-0.1335,-0.1287,0.036599997,0.5355,-9.7857,-0.3504,std
0.003577925,-0.003822271,-0.00057595863,-0.123399995,-0.1287,0.036199998,0.5352,-9.7857,-0.35,std
0.0035255651,-0.0035953782,0.00057595863,-0.113199994,-0.13849999,0.025999999,0.5349,-9.7858,-0.3496,std
0.0022514747,-0.0065275314,0.0011693706,-0.1329,-0.13849999,0.035299998,0.5349,-9.7858,-0.3491,std
0.0028797933,-0.007400196,0.0006457718,-0.1228,-0.1384,0.0545,0.5347,-9.7858,-0.3487,std
0.0045727626,-0.006021386,0.000715585,-0.14209999,-0.1384,0.044,0.5344,-9.7858,-0.348,std
0.006387905,-0.0053407075,0.00082030473,-0.132,-0.1285,0.0532,0.534,-9.7859,-0.34739998,std
0.005550147,-0.0051487214,0.0016755161,-0.1318,-0.15789999,0.0426,0.53389996,-9.7859,-0.3466,std
0.0028797933,-0.0045204028,0.0004363323,-0.1317,-0.1187,0.0223,0.5338,-9.7859,-0.3459,std
0.001972222,-0.0019896755,0.00022689281,-0.1314,-0.1284,0.051099997,0.5334,-9.785999,-0.3453,std
0.0031241393,-0.00075049157,-0.0006283185,-0.1309,-0.148,0.0605,0.533,-9.785999,-0.34489998,std
0.0035081117,3.4906585e-05,0.0010471975,-0.1011,-0.1382,0.06,0.5326,-9.786099,-0.3444,std
0.0033510323,-0.00045378561,0.0010297443,-0.1105,-0.1283,0.039499998,0.5322,-9.786099,-0.3435,std
0.004223697,-0.002565634,0.0015184365,-0.12,-0.1282,0.0187,0.5318,-9.7862,-0.3423,std
0.004694936,-0.004956735,0.0013439035,-0.119399995,-0.1282,0.0078,0.5313,-9.7862,-0.3412,std
0.0067718774,-0.0082205,0.0021816615,-0.1191,-0.1478,0.026899999,0.53099996,-9.7863,-0.3407,std
0.007120943,-0.007958702,0.0032114058,-0.1382,-0.1379,0.0264,0.5305,-9.7863,-0.34019998,std
0.0043807765,-0.008133234,0.0022165682,-0.1282,-0.1379,0.055099998,0.5302,-9.7864,-0.33949998,std
0.004415683,-0.0069115036,0.0009948377,-0.1276,-0.1378,0.054199997,0.52959996,-9.7864,-0.33859998,std
0.0050963615,-0.008691739,0.0009948377,-0.127,-0.12789999,0.0534,0.529,-9.7865,-0.3378,std
0.005497787,-0.007871435,0.0020594886,-0.1461,-0.13769999,0.0722,0.52849996,-9.7865,-0.33699998,std
0.00837758,-0.0041015237,0.0019198621,-0.1358,-0.1572,0.061499998,0.528,-9.7866,-0.33609998,std
0.005078908,-0.00413643,0.00019198621,-0.12529999,-0.14739999,0.040599998,0.52739996,-9.786699,-0.3348,std
0.0051487214,-0.0046774824,5.235988e-05,-0.1047,-0.107999995,0.049,0.52639997,-9.786799,-0.3333,std
0.004939282,-0.0051661744,0.0004363323,-0.1041,-0.1178,0.058,0.5258,-9.786799,-0.3326,std
0.0052359877,-0.006457718,0.0037350047,-0.1135,-0.1471,0.0376,0.52529997,-9.7869,-0.33179998,std
0.0036651914,-0.0059166662,0.003281219,-0.1228,-0.1275,0.046499997,0.52489996,-9.7869,-0.33089998,std
0.006510078,-0.010245083,0.002321288,-0.1025,-0.1274,0.0455,0.52419996,-9.787,-0.3299,std
0.008045968,-0.008447394,0.0008901179,-0.1118,-0.1469,0.033999998,0.5236,-9.7871,-0.32819998,std
0.0062831854,-0.011013027,0.002391101,-0.111499995,-0.1469,0.0429,0.5234,-9.7872,-0.3272,std
0.0065275314,-0.009599311,0.0026529005,-0.1309,-0.1566,0.0321,0.52309996,-9.7872,-0.3263,std
0.007278023,-0.0075572757,0.0032463125,-0.1502,-0.137,0.0311,0.52279997,-9.7872,-0.32529998,std
0.009093165,-0.00726057,0.003996804,-0.1296,-0.12709999,0.0301,0.5218,-9.7873,-0.3243,std
0.0047996556,-0.003228859,0.0030194195,-0.11889999,-0.13679999,0.0491,0.52099997,-9.787399,-0.3236,std
0.0036651914,-0.0016057029,0.0037350047,-0.1182,-0.13679999,0.057699997,0.5202,-9.787499,-0.3224,std
0.00418879,-0.0027576203,0.003281219,-0.15699999,-0.13669999,0.046299998,0.5198,-9.787499,-0.3209,std
0.005899213,-0.0035430184,0.0020594886,-0.1268,-0.14639999,0.0648,0.5191,-9.7876,-0.3198,std
0.0059515727,-0.0026703537,0.0011868239,-0.1162,-0.1463,0.053799998,0.5183,-9.7877,-0.3186,std
0.0053930674,-0.003700098,0.0016580628,-0.1153,-0.1462,0.0524,0.51739997,-9.7878,-0.3172,std
0.0037873646,-0.0037873646,0.0030019663,-0.1143,-0.1363,0.050699998,0.5164,-9.7879,-0.3154,std
0.002565634,-0.0046774824,0.0044331364,-0.12329999,-0.1461,0.059499998,0.51559997,-9.788,-0.3145,std
0.0041538836,-0.0033859387,0.003159046,-0.1125,-0.1264,0.058799997,0.5146,-9.788099,-0.31379998,std
0.0050090947,-0.0019373155,0.0017627826,-0.1215,-0.1361,0.0678,0.51379997,-9.788099,-0.3129,std
0.0035081117,-0.0028972465,0.0031939526,-0.1405,-0.12619999,0.0568,0.51309997,-9.788199,-0.3118,std
0.003822271,-0.004066617,0.0037350047,-0.1302,-0.13599999,0.0654,0.51269996,-9.7883,-0.31059998,std
0.0047472958,-0.0044505894,0.0027750735,-0.12969999,-0.13589999,0.064399995,0.5121,-9.7883,-0.30949998,std
0.0038920841,-0.0024783674,0.0027052604,-0.12879999,-0.1358,0.0734,0.51129997,-9.7884,-0.30879998,std
0.0048171086,-0.00045378561,0.0027052604,-0.1081,-0.14559999,0.0729,0.51019996,-9.7885,-0.3083,std
0.0027750735,-0.0028274334,0.004415683,-0.1171,-0.1357,0.0721,0.5093,-9.7885,-0.3075,std
0.004223697,-0.003106686,0.0032114058,-0.12629999,-0.1356,0.0613,0.50879997,-9.7886,-0.3065,std
0.005497787,-0.007347836,0.00424115,-0.1157,-0.1356,0.060599998,0.5079,-9.7887,-0.3058,std
0.006021386,-0.0058293995,0.0055152406,-0.1245,-0.1355,0.069699995,0.50699997,-9.7887,-0.305,std
0.006789331,-0.010611602,0.003403392,-0.1237,-0.1256,0.0687,0.5062,-9.788799,-0.3041,std
0.0064751715,-0.011711159,0.0049916417,-0.1426,-0.1354,0.0778,0.5054,-9.788899,-0.3033,std
0.008133234,-0.014590953,0.0048171086,-0.1418,-0.1353,0.0866,0.5047,-9.788899,-0.3023,std
0.007225663,-0.013264502,0.006318092,-0.1407,-0.1548,0.0762,0.5036,-9.789,-0.30179998,std
0.0072431164,-0.007225663,0.0041015237,-0.1399,-0.1352,0.075399995,0.5027,-9.7891,-0.30089998,std
0.0038571777,-0.0017976891,0.0010297443,-0.1388,-0.13509999,0.0743,0.50159997,-9.7892,-0.2999,std
0.0034906585,0.0010995574,0.0009948377,-0.1472,-0.1546,0.0828,0.5002,-9.7893,-0.2986,std
0.0023387412,0.0021467549,0.002268928,-0.1463,-0.14469999,0.0817,0.49929997,-9.7894,-0.2974,std
0.002443461,0.0014660766,0.005794493,-0.105799995,-0.14459999,0.0609,0.49809998,-9.789499,-0.2962,std
0.0037350047,0.0019896755,0.0040142573,-0.1144,-0.1445,0.0594,0.49679998,-9.789599,-0.2947,std
0.005131268,0.0012740904,0.0013613568,-0.053999998,-0.124699995,0.0678,0.4953,-9.7897,-0.2934,std
0.0027052604,-0.0023736479,0.003036873,-0.0725,-0.12459999,0.056599997,0.4942,-9.7898,-0.292,std
0.0036826448,-0.0034906585,0.0022165682,-0.1408,-0.1442,0.0558,0.49379998,-9.7898,-0.29119998,std
0.004834562,-0.0038397242,0.0028797933,-0.14989999,-0.1343,0.0843,0.49319997,-9.7899,-0.2902,std
0.002321288,-0.0026529005,0.001972222,-0.1393,-0.1441,0.093399994,0.49229997,-9.79,-0.2895,std
0.0013962634,-0.0022514747,0.0021991148,-0.1379,-0.1244,0.132,0.491,-9.79,-0.2889,std
0.0034557518,-0.0037873646,0.0033161256,-0.1369,-0.14389999,0.1116,0.48999998,-9.7901,-0.2881,std
0.004223697,-0.0014137167,0.0040317103,-0.15609999,-0.1537,0.120299995,0.4895,-9.790199,-0.287,std
0.0028448866,-0.0028099802,0.001012291,-0.1749,-0.15359999,0.100099996,0.4887,-9.790199,-0.2865,std
0.0032114058,-0.0035953782,0.0014835298,-0.13499999,-0.15359999,0.0994,0.48799998,-9.790299,-0.2857,std
